"","accuracy","block","eight_IKI","eight_RT","five_IKI","five_RT","four_IKI","four_RT","group","max_time","movement_time","one_IKI","one_RT","pressed","reward","seq_keys","sequence","seven_IKI","seven_RT","six_IKI","six_RT","subject","three_IKI","three_RT","too_slow","two_IKI","two_RT","t","sess","trial"
"1",0,1,480,479,448,447,512,511,"pen",3698,3440,433,433,"[4, 3, 1, 4, 2, 3, 1, 2]",5,"[4, 3, 1, 4, 2, 3, 1, 2]","A",512,511,480,479,101,560,559,1,448,447,1,"reward",1
"2",1,1,384,383,336,335,336,335,"pen",3698,2400,451,451,"[4, 3, 1, 4, 2, 3, 1, 2]",5,"[4, 3, 1, 4, 2, 3, 1, 2]","A",320,319,304,303,101,384,383,0,336,335,2,"reward",2
"3",1,1,336,335,352,351,320,319,"pen",3698,2464,466,466,"[1, 4, 2, 3, 1, 3, 4, 2]",30,"[1, 4, 2, 3, 1, 3, 4, 2]","C",400,399,384,383,101,320,319,0,352,351,1,"reward",1
"4",1,1,384,383,336,335,352,351,"pen",3698,2544,451,451,"[4, 3, 1, 4, 2, 3, 1, 2]",5,"[4, 3, 1, 4, 2, 3, 1, 2]","A",336,335,336,335,101,400,399,0,400,399,3,"reward",3
"5",1,1,368,367,352,351,368,367,"pen",3698,2496,387,387,"[4, 3, 1, 4, 2, 3, 1, 2]",5,"[4, 3, 1, 4, 2, 3, 1, 2]","A",304,303,320,319,101,352,351,0,432,431,4,"reward",4
"6",1,1,400,399,336,335,352,351,"pen",3698,2720,434,434,"[3, 2, 4, 1, 2, 4, 3, 1]",10,"[3, 2, 4, 1, 2, 4, 3, 1]","B",480,479,384,383,101,416,415,0,352,351,1,"reward",1
"7",1,1,352,351,336,336,352,351,"pen",3698,2704,466,466,"[1, 4, 2, 3, 1, 3, 4, 2]",30,"[1, 4, 2, 3, 1, 3, 4, 2]","C",432,431,496,495,101,336,335,0,400,399,2,"reward",2
"8",1,1,384,383,384,383,384,383,"pen",3698,2656,401,401,"[3, 2, 4, 1, 2, 4, 3, 1]",10,"[3, 2, 4, 1, 2, 4, 3, 1]","B",336,335,384,383,101,384,383,0,400,399,2,"reward",2
"9",1,1,384,383,352,351,368,367,"pen",3698,2560,450,450,"[3, 2, 4, 1, 2, 4, 3, 1]",10,"[3, 2, 4, 1, 2, 4, 3, 1]","B",368,367,368,367,101,368,367,0,352,351,3,"reward",3
"10",1,1,384,383,320,319,352,351,"pen",3698,2416,400,400,"[4, 3, 1, 4, 2, 3, 1, 2]",5,"[4, 3, 1, 4, 2, 3, 1, 2]","A",320,319,288,287,101,336,335,0,416,415,5,"reward",5
"11",1,1,368,367,336,335,352,352,"pen",3698,2528,401,401,"[3, 2, 4, 1, 2, 4, 3, 1]",10,"[3, 2, 4, 1, 2, 4, 3, 1]","B",384,383,384,383,101,368,367,0,336,335,4,"reward",4
"12",1,1,352,351,352,351,336,335,"pen",3698,2608,450,450,"[1, 4, 2, 3, 1, 3, 4, 2]",30,"[1, 4, 2, 3, 1, 3, 4, 2]","C",400,399,496,495,101,320,319,0,352,351,3,"reward",3
"13",1,1,352,351,384,383,384,383,"pen",3698,2592,435,435,"[3, 2, 4, 1, 2, 4, 3, 1]",10,"[3, 2, 4, 1, 2, 4, 3, 1]","B",368,367,352,351,101,368,367,0,384,383,5,"reward",5
"14",1,1,352,351,368,367,352,351,"pen",3698,2368,307,307,"[3, 2, 4, 1, 2, 4, 3, 1]",10,"[3, 2, 4, 1, 2, 4, 3, 1]","B",336,335,320,319,101,288,287,0,352,351,6,"reward",6
"15",1,1,368,367,352,351,368,367,"pen",3698,2496,531,531,"[4, 3, 1, 4, 2, 3, 1, 2]",5,"[4, 3, 1, 4, 2, 3, 1, 2]","A",352,351,336,335,101,336,335,0,384,383,6,"reward",6
"16",1,1,400,399,368,367,400,399,"pen",3698,2704,371,371,"[4, 3, 1, 4, 2, 3, 1, 2]",5,"[4, 3, 1, 4, 2, 3, 1, 2]","A",352,351,352,351,101,400,399,0,432,431,7,"reward",7
"17",1,1,384,383,368,367,384,383,"pen",3698,2528,385,385,"[3, 2, 4, 1, 2, 4, 3, 1]",10,"[3, 2, 4, 1, 2, 4, 3, 1]","B",352,351,352,351,101,352,351,0,336,335,7,"reward",7
"18",1,1,368,367,352,351,336,335,"pen",3698,2400,321,321,"[3, 2, 4, 1, 2, 4, 3, 1]",10,"[3, 2, 4, 1, 2, 4, 3, 1]","B",352,351,352,351,101,320,319,0,320,319,8,"reward",8
"19",1,1,352,351,368,367,320,319,"pen",3698,2624,497,497,"[1, 4, 2, 3, 1, 3, 4, 2]",30,"[1, 4, 2, 3, 1, 3, 4, 2]","C",416,415,448,447,101,352,351,0,368,367,4,"reward",4
"20",1,1,432,431,368,367,384,383,"pen",3698,2704,481,481,"[4, 3, 1, 4, 2, 3, 1, 2]",5,"[4, 3, 1, 4, 2, 3, 1, 2]","A",336,335,320,319,101,416,415,0,448,447,8,"reward",8
"21",1,1,304,303,336,335,336,335,"pen",3698,2800,431,431,"[1, 4, 2, 3, 1, 3, 4, 2]",30,"[1, 4, 2, 3, 1, 3, 4, 2]","C",400,399,688,687,101,352,351,0,384,383,5,"reward",5
"22",0,1,288,287,336,335,320,319,"pen",2978,2528,459,459,"[1, 4, 2, 3, 1, 3, 4, 2]",30,"[1, 4, 2, 3, 1, 3, 4, 2]","C",384,383,464,463,101,368,367,1,368,367,6,"reward",6
"23",1,1,288,287,336,335,304,303,"pen",2978,2352,334,334,"[1, 4, 2, 3, 1, 3, 4, 2]",30,"[1, 4, 2, 3, 1, 3, 4, 2]","C",416,415,416,415,101,288,287,0,304,303,7,"reward",7
"24",1,1,416,415,320,319,352,351,"pen",2975,2384,446,446,"[4, 3, 1, 4, 2, 3, 1, 2]",5,"[4, 3, 1, 4, 2, 3, 1, 2]","A",288,287,272,271,101,336,335,0,400,399,9,"reward",9
"25",1,1,352,351,384,383,304,303,"pen",2975,2368,380,380,"[3, 2, 4, 1, 2, 4, 3, 1]",10,"[3, 2, 4, 1, 2, 4, 3, 1]","B",320,319,352,351,101,320,319,0,336,335,9,"reward",9
"26",1,1,368,367,384,383,336,335,"pen",2929,2432,368,368,"[3, 2, 4, 1, 2, 4, 3, 1]",10,"[3, 2, 4, 1, 2, 4, 3, 1]","B",352,351,352,351,101,320,319,0,320,319,10,"reward",10
"27",0,1,416,415,336,335,320,319,"pen",2929,2528,554,554,"[4, 3, 1, 4, 2, 3, 1, 2]",5,"[4, 3, 1, 4, 2, 3, 1, 2]","A",336,335,320,319,101,352,351,1,448,447,10,"reward",10
"28",0,1,NA,NA,320,319,304,303,"pen",2929,1568,446,446,"[1, 4, 2, 3, 1, 4]",30,"[1, 4, 2, 3, 1, 3, 4, 2]","C",NA,NA,NA,319,101,272,271,0,352,351,8,"reward",8
"29",1,1,368,367,336,335,336,335,"pen",2929,2400,430,430,"[4, 3, 1, 4, 2, 3, 1, 2]",5,"[4, 3, 1, 4, 2, 3, 1, 2]","A",352,351,272,271,101,368,367,0,368,367,11,"reward",11
"30",1,1,304,303,336,335,320,319,"pen",2929,2352,395,395,"[1, 4, 2, 3, 1, 3, 4, 2]",30,"[1, 4, 2, 3, 1, 3, 4, 2]","C",384,383,368,367,101,288,287,0,352,351,9,"reward",9
"31",0,1,NA,NA,320,319,304,303,"pen",2897,1968,363,363,"[1, 4, 2, 3, 1, 3, 3]",30,"[1, 4, 2, 3, 1, 3, 4, 2]","C",NA,335,368,367,101,288,287,0,352,351,10,"reward",10
"32",1,1,384,383,384,383,336,335,"pen",2897,2512,335,335,"[3, 2, 4, 1, 2, 4, 3, 1]",10,"[3, 2, 4, 1, 2, 4, 3, 1]","B",320,319,352,351,101,352,351,0,384,383,11,"reward",11
"33",1,1,352,351,304,303,304,303,"pen",2896,2432,411,411,"[1, 4, 2, 3, 1, 3, 4, 2]",30,"[1, 4, 2, 3, 1, 3, 4, 2]","C",384,383,464,463,101,288,287,0,336,335,11,"reward",11
"34",0,1,384,383,320,319,448,447,"pen",2832,2432,413,413,"[4, 3, 1, 4, 2, 3, 1, 2]",5,"[4, 3, 1, 4, 2, 3, 1, 2]","A",304,303,304,303,101,320,319,1,352,351,12,"reward",12
"35",0,1,NA,NA,NA,NA,NA,NA,"pen",2832,0,NA,364,"[2]",30,"[1, 4, 2, 3, 1, 3, 4, 2]","C",NA,NA,NA,NA,101,NA,NA,0,NA,NA,12,"reward",12
"36",0,1,336,335,448,447,400,399,"pen",2832,2544,363,363,"[3, 2, 4, 1, 2, 4, 3, 1]",10,"[3, 2, 4, 1, 2, 4, 3, 1]","B",352,351,368,367,101,288,287,1,352,351,12,"reward",12
"37",1,2,368,367,288,287,320,319,"pen",2832,2240,432,432,"[4, 3, 1, 4, 2, 3, 1, 2]",5,"[4, 3, 1, 4, 2, 3, 1, 2]","A",288,287,272,271,101,320,319,0,384,383,13,"reward",13
"38",1,2,256,255,352,351,288,287,"pen",2833,2192,426,426,"[1, 4, 2, 3, 1, 3, 4, 2]",30,"[1, 4, 2, 3, 1, 3, 4, 2]","C",384,383,336,335,101,240,239,0,336,335,13,"reward",13
"39",0,2,384,383,320,319,352,351,"pen",2843,2704,363,363,"[4, 3, 1, 4, 2, 3, 1, 2]",5,"[4, 3, 1, 4, 2, 3, 1, 2]","A",512,511,224,223,101,480,479,1,432,431,14,"reward",14
"40",0,2,NA,NA,304,303,304,303,"pen",2843,2032,362,362,"[3, 2, 4, 1, 2, 4, 2]",10,"[3, 2, 4, 1, 2, 4, 3, 1]","B",NA,223,368,367,101,464,463,0,368,367,13,"reward",13
"41",1,2,352,351,336,335,336,335,"pen",2843,2448,395,395,"[3, 2, 4, 1, 2, 4, 3, 1]",10,"[3, 2, 4, 1, 2, 4, 3, 1]","B",288,287,336,335,101,384,383,0,416,415,14,"reward",14
"42",0,2,336,335,384,383,320,319,"pen",2827,2528,427,427,"[3, 2, 4, 1, 2, 4, 3, 1]",10,"[3, 2, 4, 1, 2, 4, 3, 1]","B",336,335,304,303,101,352,351,1,496,495,15,"reward",15
"43",0,2,400,399,288,287,352,351,"pen",2827,2464,409,409,"[4, 3, 1, 4, 2, 3, 1, 2]",5,"[4, 3, 1, 4, 2, 3, 1, 2]","A",320,319,336,335,101,336,335,1,432,431,15,"reward",15
"44",1,2,320,319,336,335,256,255,"pen",2827,2272,411,411,"[3, 2, 4, 1, 2, 4, 3, 1]",10,"[3, 2, 4, 1, 2, 4, 3, 1]","B",400,399,304,303,101,352,351,0,304,303,16,"reward",16
"45",0,2,NA,NA,320,319,224,223,"pen",2795,1904,350,350,"[3, 2, 4, 1, 2, 4, 2]",10,"[3, 2, 4, 1, 2, 4, 3, 1]","B",NA,319,384,383,101,320,319,0,336,335,17,"reward",17
"46",0,2,352,351,368,367,368,367,"pen",2795,2432,365,365,"[4, 3, 1, 4, 2, 3, 1, 2]",5,"[4, 3, 1, 4, 2, 3, 1, 2]","A",336,335,288,287,101,320,319,1,400,399,16,"reward",16
"47",0,2,NA,NA,272,271,400,399,"pen",2795,1632,315,315,"[4, 3, 1, 4, 2, 4]",5,"[4, 3, 1, 4, 2, 3, 1, 2]","A",NA,NA,NA,319,101,336,335,0,304,303,17,"reward",17
"48",1,2,272,271,368,367,368,367,"pen",2795,2400,285,285,"[4, 3, 1, 4, 2, 3, 1, 2]",5,"[4, 3, 1, 4, 2, 3, 1, 2]","A",416,415,304,303,101,304,303,0,368,367,18,"reward",18
"49",1,2,256,255,368,367,304,303,"pen",2795,2384,398,398,"[1, 4, 2, 3, 1, 3, 4, 2]",30,"[1, 4, 2, 3, 1, 3, 4, 2]","C",544,543,304,303,101,288,287,0,320,319,14,"reward",14
"50",0,2,368,367,352,351,432,431,"pen",2795,2528,361,361,"[4, 3, 1, 4, 2, 3, 1, 2]",5,"[4, 3, 1, 4, 2, 3, 1, 2]","A",272,271,304,303,101,336,335,1,464,463,19,"reward",19
"51",1,2,256,255,320,319,320,319,"pen",2795,2384,351,351,"[4, 3, 1, 4, 2, 3, 1, 2]",5,"[4, 3, 1, 4, 2, 3, 1, 2]","A",288,287,432,431,101,336,335,0,432,431,20,"reward",20
"52",1,2,352,351,304,303,320,319,"pen",2795,2384,408,408,"[4, 3, 1, 4, 2, 3, 1, 2]",5,"[4, 3, 1, 4, 2, 3, 1, 2]","A",288,287,272,271,101,448,447,0,400,399,21,"reward",21
"53",0,2,272,271,544,543,336,335,"pen",2782,2480,375,375,"[1, 4, 2, 3, 1, 3, 4, 2]",30,"[1, 4, 2, 3, 1, 3, 4, 2]","C",384,383,352,351,101,240,239,1,352,351,15,"reward",15
"54",0,2,NA,NA,NA,NA,NA,NA,"pen",2782,288,362,362,"[3, 1]",10,"[3, 2, 4, 1, 2, 4, 3, 1]","B",NA,NA,NA,NA,101,NA,NA,0,NA,287,18,"reward",18
"55",0,2,240,239,400,399,304,303,"pen",2782,2400,408,408,"[1, 4, 2, 3, 1, 3, 4, 2]",30,"[1, 4, 2, 3, 1, 3, 4, 2]","C",384,383,384,383,101,304,303,1,384,383,16,"reward",16
"56",1,2,240,239,352,351,320,319,"pen",2782,2320,392,392,"[1, 4, 2, 3, 1, 3, 4, 2]",30,"[1, 4, 2, 3, 1, 3, 4, 2]","C",384,383,368,367,101,336,335,0,320,319,17,"reward",17
"57",1,2,320,319,416,415,304,303,"pen",2782,2384,392,392,"[3, 2, 4, 1, 2, 4, 3, 1]",10,"[3, 2, 4, 1, 2, 4, 3, 1]","B",320,319,352,351,101,288,287,0,384,383,19,"reward",19
"58",1,2,240,239,336,335,304,303,"pen",2779,2208,407,407,"[1, 4, 2, 3, 1, 3, 4, 2]",30,"[1, 4, 2, 3, 1, 3, 4, 2]","C",352,351,352,351,101,272,271,0,352,351,18,"reward",18
"59",0,2,NA,271,400,399,352,351,"pen",2779,2240,347,347,"[3, 2, 4, 1, 2, 4, 3, 2]",10,"[3, 2, 4, 1, 2, 4, 3, 1]","B",272,271,304,303,101,272,271,0,368,367,20,"reward",20
"60",0,2,NA,NA,304,303,304,303,"pen",2779,1888,377,377,"[4, 3, 1, 4, 2, 3, 2]",5,"[4, 3, 1, 4, 2, 3, 1, 2]","A",NA,287,304,303,101,320,319,0,368,367,22,"reward",22
"61",0,2,304,303,368,367,304,303,"pen",2779,2432,393,393,"[3, 2, 4, 1, 2, 4, 3, 1]",10,"[3, 2, 4, 1, 2, 4, 3, 1]","B",384,383,368,367,101,352,351,1,352,351,21,"reward",21
"62",1,2,240,239,336,335,256,256,"pen",2779,2160,410,410,"[3, 2, 4, 1, 2, 4, 3, 1]",10,"[3, 2, 4, 1, 2, 4, 3, 1]","B",384,383,304,303,101,304,303,0,336,335,22,"reward",22
"63",1,2,256,255,336,335,304,303,"pen",2779,2192,392,392,"[1, 4, 2, 3, 1, 3, 4, 2]",30,"[1, 4, 2, 3, 1, 3, 4, 2]","C",352,351,352,351,101,288,287,0,304,303,19,"reward",19
"64",0,2,NA,NA,NA,NA,NA,NA,"pen",2779,0,NA,328,"[2]",30,"[1, 4, 2, 3, 1, 3, 4, 2]","C",NA,NA,NA,NA,101,NA,NA,0,NA,NA,20,"reward",20
"65",1,2,448,447,320,319,336,335,"pen",2779,2384,393,393,"[4, 3, 1, 4, 2, 3, 1, 2]",5,"[4, 3, 1, 4, 2, 3, 1, 2]","A",320,320,288,287,101,304,303,0,368,367,23,"reward",23
"66",0,2,NA,207,416,415,304,303,"pen",2779,2480,357,357,"[1, 4, 2, 3, 1, 3, 4, 1]",30,"[1, 4, 2, 3, 1, 3, 4, 2]","C",528,527,368,367,101,272,271,0,384,383,21,"reward",21
"67",1,2,256,255,352,351,224,223,"pen",2779,2080,298,298,"[1, 4, 2, 3, 1, 3, 4, 2]",30,"[1, 4, 2, 3, 1, 3, 4, 2]","C",400,399,336,335,101,416,415,0,96,95,22,"reward",22
"68",1,2,304,303,336,335,224,223,"pen",2779,1952,294,294,"[1, 4, 2, 3, 1, 3, 4, 2]",30,"[1, 4, 2, 3, 1, 3, 4, 2]","C",384,383,320,319,101,320,319,0,64,63,23,"reward",23
"69",0,2,NA,NA,368,367,448,447,"pen",2747,1968,357,357,"[3, 2, 4, 1, 2, 4, 2]",10,"[3, 2, 4, 1, 2, 4, 3, 1]","B",NA,255,320,319,101,288,287,0,288,287,23,"reward",23
"70",1,2,304,303,336,335,352,351,"pen",2747,2352,394,394,"[4, 3, 1, 4, 2, 3, 1, 2]",5,"[4, 3, 1, 4, 2, 3, 1, 2]","A",320,319,240,239,101,368,367,0,432,431,24,"reward",24
"71",0,2,320,319,320,319,320,319,"pen",2746,2576,421,421,"[3, 2, 4, 1, 2, 4, 3, 1]",10,"[3, 2, 4, 1, 2, 4, 3, 1]","B",320,319,320,319,101,352,351,1,624,623,24,"reward",24
"72",1,2,272,271,352,351,256,255,"pen",2746,2080,194,194,"[1, 4, 2, 3, 1, 3, 4, 2]",30,"[1, 4, 2, 3, 1, 3, 4, 2]","C",352,351,432,431,101,352,351,0,64,63,24,"reward",24
"73",0,3,NA,NA,384,383,384,383,"pen",2713,2016,273,273,"[3, 2, 4, 1, 2, 4, 2]",10,"[3, 2, 4, 1, 2, 4, 3, 1]","B",NA,287,336,335,101,304,303,0,320,319,25,"reward",25
"74",0,3,336,335,352,351,448,447,"pen",2713,2432,394,394,"[4, 3, 1, 4, 2, 3, 1, 2]",5,"[4, 3, 1, 4, 2, 3, 1, 2]","A",304,303,304,303,101,352,351,1,336,335,25,"reward",25
"75",0,3,304,303,592,591,480,479,"pen",2713,2656,280,280,"[1, 4, 2, 3, 1, 3, 4, 2]",30,"[1, 4, 2, 3, 1, 3, 4, 2]","C",368,367,496,495,101,352,351,1,64,63,25,"reward",25
"76",1,3,256,255,320,319,336,335,"pen",2713,2160,360,360,"[1, 4, 2, 3, 1, 3, 4, 2]",30,"[1, 4, 2, 3, 1, 3, 4, 2]","C",368,367,480,479,101,192,192,0,208,207,26,"reward",26
"77",0,3,NA,NA,NA,351,368,367,"pen",2665,1232,247,247,"[3, 2, 4, 1, 3]",10,"[3, 2, 4, 1, 2, 4, 3, 1]","B",NA,NA,NA,NA,101,304,303,0,208,207,26,"reward",26
"78",1,3,320,319,336,335,272,271,"pen",2665,2016,247,247,"[1, 4, 2, 3, 1, 3, 4, 2]",30,"[1, 4, 2, 3, 1, 3, 4, 2]","C",384,383,384,383,101,224,223,0,96,95,27,"reward",27
"79",0,3,NA,239,352,351,320,319,"pen",2632,2432,478,478,"[3, 2, 4, 1, 2, 4, 3, 2]",10,"[3, 2, 4, 1, 2, 4, 3, 1]","B",480,479,416,415,101,352,351,0,272,271,27,"reward",27
"80",1,3,272,271,400,399,240,239,"pen",2632,2144,297,297,"[3, 2, 4, 1, 2, 4, 3, 1]",10,"[3, 2, 4, 1, 2, 4, 3, 1]","B",496,495,368,367,101,256,255,0,112,111,28,"reward",28
"81",0,3,336,335,352,351,352,351,"pen",2600,2624,293,293,"[4, 3, 1, 4, 2, 3, 1, 2]",5,"[4, 3, 1, 4, 2, 3, 1, 2]","A",352,351,512,511,101,320,319,1,400,399,26,"reward",26
"82",1,3,288,287,352,351,208,207,"pen",2600,1856,279,279,"[1, 4, 2, 3, 1, 3, 4, 2]",30,"[1, 4, 2, 3, 1, 3, 4, 2]","C",352,351,336,335,101,240,239,0,80,79,28,"reward",28
"83",1,3,304,303,304,303,304,303,"pen",2600,2128,243,243,"[4, 3, 1, 4, 2, 3, 1, 2]",5,"[4, 3, 1, 4, 2, 3, 1, 2]","A",352,351,320,319,101,352,352,0,192,191,27,"reward",27
"84",1,3,448,447,272,271,320,319,"pen",2552,1936,380,380,"[4, 3, 1, 4, 2, 3, 1, 2]",5,"[4, 3, 1, 4, 2, 3, 1, 2]","A",240,239,304,303,101,240,239,0,112,111,28,"reward",28
"85",1,3,368,367,224,223,320,319,"pen",2520,1872,259,259,"[1, 4, 2, 3, 1, 3, 4, 2]",30,"[1, 4, 2, 3, 1, 3, 4, 2]","C",368,367,336,335,101,160,159,0,96,95,29,"reward",29
"86",0,3,NA,NA,NA,NA,NA,271,"pen",2520,624,262,262,"[4, 3, 1, 3]",5,"[4, 3, 1, 4, 2, 3, 1, 2]","A",NA,NA,NA,NA,101,224,223,0,128,127,29,"reward",29
"87",0,3,NA,NA,NA,NA,NA,NA,"pen",2520,368,262,262,"[3, 3]",10,"[3, 2, 4, 1, 2, 4, 3, 1]","B",NA,NA,NA,NA,101,NA,NA,0,NA,367,29,"reward",29
"88",1,3,256,255,256,255,256,255,"pen",2520,1728,230,230,"[1, 4, 2, 3, 1, 3, 4, 2]",30,"[1, 4, 2, 3, 1, 3, 4, 2]","C",336,335,336,335,101,192,191,0,96,95,30,"reward",30
"89",0,3,NA,NA,NA,NA,NA,NA,"pen",2495,96,300,300,"[3, 4]",10,"[3, 2, 4, 1, 2, 4, 3, 1]","B",NA,NA,NA,NA,101,NA,NA,0,NA,95,30,"reward",30
"90",0,3,592,591,464,463,368,367,"pen",2495,2400,314,314,"[4, 3, 1, 4, 2, 3, 1, 2]",5,"[4, 3, 1, 4, 2, 3, 1, 2]","A",336,335,288,287,101,240,239,1,112,111,30,"reward",30
"91",1,3,208,207,288,287,368,367,"pen",2495,1952,246,246,"[1, 4, 2, 3, 1, 3, 4, 2]",30,"[1, 4, 2, 3, 1, 3, 4, 2]","C",368,367,448,447,101,192,191,0,80,79,31,"reward",31
"92",0,3,NA,NA,NA,223,192,191,"pen",2426,784,300,300,"[1, 4, 2, 3, 2]",30,"[1, 4, 2, 3, 1, 3, 4, 2]","C",NA,NA,NA,NA,101,208,207,0,160,159,32,"reward",32
"93",1,3,320,319,320,319,384,383,"pen",2426,1984,265,265,"[4, 3, 1, 4, 2, 3, 1, 2]",5,"[4, 3, 1, 4, 2, 3, 1, 2]","A",256,255,288,287,101,208,207,0,208,207,31,"reward",31
"94",1,3,208,207,320,319,224,223,"pen",2377,1904,296,296,"[1, 4, 2, 3, 1, 3, 4, 2]",30,"[1, 4, 2, 3, 1, 3, 4, 2]","C",416,415,320,319,101,208,207,0,208,207,33,"reward",33
"95",0,3,352,351,320,319,368,367,"pen",2376,2160,363,363,"[4, 3, 1, 4, 2, 3, 1, 2]",5,"[4, 3, 1, 4, 2, 3, 1, 2]","A",288,287,320,319,101,240,239,1,272,271,32,"reward",32
"96",1,3,304,303,272,271,432,431,"pen",2376,2016,264,264,"[4, 3, 1, 4, 2, 3, 1, 2]",5,"[4, 3, 1, 4, 2, 3, 1, 2]","A",336,335,272,271,101,208,207,0,192,191,33,"reward",33
"97",1,3,240,239,240,239,464,463,"pen",2310,2016,114,114,"[4, 3, 1, 4, 2, 3, 1, 2]",5,"[4, 3, 1, 4, 2, 3, 1, 2]","A",256,255,304,303,101,224,223,0,288,287,34,"reward",34
"98",0,3,NA,NA,NA,335,416,415,"pen",2295,1520,228,228,"[3, 2, 4, 1, 3]",10,"[3, 2, 4, 1, 2, 4, 3, 1]","B",NA,NA,NA,NA,101,320,319,0,448,447,31,"reward",31
"99",1,3,288,287,272,271,336,335,"pen",2295,1920,249,249,"[4, 3, 1, 4, 2, 3, 1, 2]",5,"[4, 3, 1, 4, 2, 3, 1, 2]","A",288,287,320,319,101,176,175,0,240,239,35,"reward",35
"100",0,3,NA,NA,NA,NA,NA,NA,"pen",2281,192,244,244,"[3, 4]",10,"[3, 2, 4, 1, 2, 4, 3, 1]","B",NA,NA,NA,NA,101,NA,NA,0,NA,191,32,"reward",32
"101",0,3,304,303,336,335,448,447,"pen",2281,2320,248,248,"[3, 2, 4, 1, 2, 4, 3, 1]",10,"[3, 2, 4, 1, 2, 4, 3, 1]","B",368,367,320,319,101,352,352,1,192,191,33,"reward",33
"102",0,3,NA,NA,256,255,288,287,"pen",2281,1536,246,246,"[1, 4, 2, 3, 1, 3, 1]",30,"[1, 4, 2, 3, 1, 3, 4, 2]","C",NA,223,304,303,101,208,207,0,256,255,34,"reward",34
"103",0,3,384,383,288,287,368,367,"pen",2281,2048,295,295,"[4, 3, 1, 4, 2, 3, 1, 2]",5,"[4, 3, 1, 4, 2, 3, 1, 2]","A",272,271,304,303,101,208,207,1,224,223,36,"reward",36
"104",0,3,288,288,368,368,272,271,"pen",2281,2256,468,468,"[3, 2, 4, 1, 2, 4, 3, 1]",10,"[3, 2, 4, 1, 2, 4, 3, 1]","B",304,303,304,304,101,320,319,1,400,399,34,"reward",34
"105",1,3,240,239,368,367,256,255,"pen",2281,2048,213,213,"[1, 4, 2, 3, 1, 3, 4, 2]",30,"[1, 4, 2, 3, 1, 3, 4, 2]","C",400,399,320,319,101,240,239,0,224,223,35,"reward",35
"106",0,3,NA,255,368,367,320,319,"pen",2280,2288,453,453,"[3, 2, 4, 1, 2, 4, 3, 2]",10,"[3, 2, 4, 1, 2, 4, 3, 1]","B",352,351,320,319,101,320,319,0,352,351,35,"reward",35
"107",0,3,336,335,416,415,464,463,"pen",2280,2832,407,407,"[3, 2, 4, 1, 2, 4, 3, 1]",10,"[3, 2, 4, 1, 2, 4, 3, 1]","B",416,415,400,399,101,416,415,1,384,383,36,"reward",36
"108",0,3,NA,NA,336,335,288,287,"pen",2280,1536,260,260,"[1, 4, 2, 3, 1, 4]",30,"[1, 4, 2, 3, 1, 3, 4, 2]","C",NA,NA,NA,319,101,384,383,0,208,207,36,"reward",36
"109",0,4,288,287,288,287,272,271,"pen",2280,2048,273,273,"[1, 4, 2, 3, 1, 3, 4, 2]",30,"[1, 4, 2, 3, 1, 3, 4, 2]","C",352,351,368,367,101,256,255,1,224,223,37,"reward",37
"110",1,4,224,223,400,399,192,191,"pen",2280,1888,215,215,"[1, 4, 2, 3, 1, 3, 4, 2]",30,"[1, 4, 2, 3, 1, 3, 4, 2]","C",400,399,336,335,101,192,191,0,144,143,38,"reward",38
"111",0,4,NA,NA,NA,303,256,255,"pen",2243,1168,243,243,"[1, 4, 2, 3, 2]",30,"[1, 4, 2, 3, 1, 3, 4, 2]","C",NA,NA,NA,NA,101,384,383,0,224,223,39,"reward",39
"112",0,4,288,287,272,271,464,463,"pen",2243,1984,327,327,"[4, 3, 1, 4, 2, 3, 1, 2]",5,"[4, 3, 1, 4, 2, 3, 1, 2]","A",208,207,240,239,101,256,255,1,256,255,37,"reward",37
"113",0,4,208,207,272,271,288,287,"pen",2243,2048,301,301,"[1, 4, 2, 3, 1, 3, 4, 2]",30,"[1, 4, 2, 3, 1, 3, 4, 2]","C",400,399,320,319,101,288,287,1,272,271,40,"reward",40
"114",0,4,NA,NA,NA,NA,NA,319,"pen",2243,960,344,344,"[4, 3, 1, 3]",5,"[4, 3, 1, 4, 2, 3, 1, 2]","A",NA,NA,NA,NA,101,304,303,0,336,335,38,"reward",38
"115",0,4,NA,NA,368,367,400,399,"pen",2243,1888,437,437,"[3, 2, 4, 1, 2, 4, 2]",10,"[3, 2, 4, 1, 2, 4, 3, 1]","B",NA,207,320,319,101,240,239,0,352,351,37,"reward",37
"116",0,4,336,335,304,303,336,335,"pen",2243,2384,505,505,"[4, 3, 1, 4, 2, 3, 1, 2]",5,"[4, 3, 1, 4, 2, 3, 1, 2]","A",336,335,288,287,101,368,367,1,416,415,39,"reward",39
"117",0,4,256,255,288,287,304,303,"pen",2243,2112,243,243,"[1, 4, 2, 3, 1, 3, 4, 2]",30,"[1, 4, 2, 3, 1, 3, 4, 2]","C",352,351,320,319,101,288,287,1,304,303,41,"reward",41
"118",0,4,1136,1135,384,383,432,431,"pen",2243,3440,289,289,"[3, 2, 4, 1, 2, 4, 3, 1]",10,"[3, 2, 4, 1, 2, 4, 3, 1]","B",368,367,368,367,101,368,367,1,384,383,38,"reward",38
"119",0,4,272,271,352,352,160,159,"pen",2243,2048,292,292,"[3, 2, 4, 1, 2, 4, 3, 1]",10,"[3, 2, 4, 1, 2, 4, 3, 1]","B",528,527,320,319,101,320,319,1,96,95,39,"reward",39
"120",0,4,352,351,336,335,352,351,"pen",2243,2480,422,422,"[4, 3, 1, 4, 2, 3, 1, 2]",5,"[4, 3, 1, 4, 2, 3, 1, 2]","A",368,367,320,319,101,336,335,1,416,415,40,"reward",40
"121",1,4,288,287,320,319,288,287,"pen",2243,1968,213,213,"[1, 4, 2, 3, 1, 3, 4, 2]",30,"[1, 4, 2, 3, 1, 3, 4, 2]","C",208,207,592,591,101,176,175,0,96,95,42,"reward",42
"122",0,4,NA,NA,416,415,288,287,"pen",2217,1760,390,390,"[3, 2, 4, 1, 2, 4, 2]",10,"[3, 2, 4, 1, 2, 4, 3, 1]","B",NA,175,384,383,101,240,239,0,256,255,40,"reward",40
"123",0,4,NA,239,352,351,256,255,"pen",2217,2000,521,521,"[3, 2, 4, 1, 2, 4, 3, 2]",10,"[3, 2, 4, 1, 2, 4, 3, 1]","B",256,255,352,351,101,272,271,0,272,271,41,"reward",41
"124",0,4,NA,NA,NA,287,304,303,"pen",2217,1152,440,440,"[1, 4, 2, 3, 2]",30,"[1, 4, 2, 3, 1, 3, 4, 2]","C",NA,NA,NA,NA,101,224,223,0,336,335,43,"reward",43
"125",0,4,NA,NA,NA,NA,NA,NA,"pen",2217,288,462,462,"[3, 1]",10,"[3, 2, 4, 1, 2, 4, 3, 1]","B",NA,NA,NA,NA,101,NA,NA,0,NA,287,42,"reward",42
"126",0,4,304,303,288,287,400,399,"pen",2217,2128,279,279,"[4, 3, 1, 4, 2, 3, 1, 2]",5,"[4, 3, 1, 4, 2, 3, 1, 2]","A",336,335,304,304,101,368,367,1,128,127,41,"reward",41
"127",0,4,NA,NA,NA,NA,NA,NA,"pen",2217,448,484,484,"[4, 4]",5,"[4, 3, 1, 4, 2, 3, 1, 2]","A",NA,NA,NA,NA,101,NA,NA,0,NA,447,42,"reward",42
"128",0,4,NA,NA,NA,NA,NA,NA,"pen",2217,0,NA,6,"[3]",5,"[4, 3, 1, 4, 2, 3, 1, 2]","A",NA,NA,NA,NA,101,NA,NA,0,NA,NA,43,"reward",43
"129",0,4,NA,NA,NA,NA,NA,335,"pen",2217,816,323,323,"[4, 3, 1, 3]",5,"[4, 3, 1, 4, 2, 3, 1, 2]","A",NA,NA,NA,NA,101,384,383,0,96,95,44,"reward",44
"130",0,4,416,415,368,367,400,399,"pen",2217,2752,422,422,"[3, 2, 4, 1, 2, 4, 3, 1]",10,"[3, 2, 4, 1, 2, 4, 3, 1]","B",432,431,432,431,101,320,319,1,384,383,43,"reward",43
"131",1,4,240,239,272,271,192,191,"pen",2217,1696,262,262,"[1, 4, 2, 3, 1, 3, 4, 2]",30,"[1, 4, 2, 3, 1, 3, 4, 2]","C",352,352,304,303,101,208,207,0,128,127,44,"reward",44
"132",1,4,176,175,384,384,160,159,"pen",2217,1776,224,224,"[1, 4, 2, 3, 1, 3, 4, 2]",30,"[1, 4, 2, 3, 1, 3, 4, 2]","C",416,415,288,287,101,192,191,0,160,159,45,"reward",45
"133",0,4,NA,NA,352,351,304,303,"pen",2199,1776,470,470,"[3, 2, 4, 1, 2, 4, 2]",10,"[3, 2, 4, 1, 2, 4, 3, 1]","B",NA,239,384,383,101,208,207,0,288,287,44,"reward",44
"134",0,4,304,303,464,463,304,303,"pen",2199,2176,629,629,"[3, 2, 4, 1, 2, 4, 3, 1]",10,"[3, 2, 4, 1, 2, 4, 3, 1]","B",352,351,272,271,101,208,207,1,272,271,45,"reward",45
"135",0,4,NA,NA,NA,NA,NA,NA,"pen",2199,336,391,391,"[3, 3]",10,"[3, 2, 4, 1, 2, 4, 3, 1]","B",NA,NA,NA,NA,101,NA,NA,0,NA,335,46,"reward",46
"136",0,4,NA,NA,NA,207,256,255,"pen",2199,832,290,290,"[1, 4, 2, 3, 2]",30,"[1, 4, 2, 3, 1, 3, 4, 2]","C",NA,NA,NA,NA,101,208,208,0,160,159,46,"reward",46
"137",0,4,NA,NA,NA,NA,NA,303,"pen",2199,704,246,246,"[1, 4, 2, 1]",30,"[1, 4, 2, 3, 1, 3, 4, 2]","C",NA,NA,NA,NA,101,208,207,0,192,191,47,"reward",47
"138",0,4,256,255,384,383,256,255,"pen",2199,2256,408,408,"[3, 2, 4, 1, 2, 4, 3, 1]",10,"[3, 2, 4, 1, 2, 4, 3, 1]","B",304,303,320,319,101,336,335,1,400,399,47,"reward",47
"139",0,4,NA,271,352,351,320,319,"pen",2199,2096,386,386,"[4, 3, 1, 4, 2, 3, 1, 3]",5,"[4, 3, 1, 4, 2, 3, 1, 2]","A",272,271,192,191,101,304,303,0,384,383,45,"reward",45
"140",0,4,NA,NA,NA,NA,NA,287,"pen",2199,768,329,329,"[4, 3, 1, 3]",5,"[4, 3, 1, 4, 2, 3, 1, 2]","A",NA,NA,NA,NA,101,256,255,0,224,223,46,"reward",46
"141",0,4,NA,271,320,319,320,319,"pen",2199,2160,387,387,"[4, 3, 1, 4, 2, 3, 1, 4]",5,"[4, 3, 1, 4, 2, 3, 1, 2]","A",240,239,272,271,101,368,367,0,368,367,47,"reward",47
"142",1,4,240,239,272,271,208,207,"pen",2199,1664,265,265,"[1, 4, 2, 3, 1, 3, 4, 2]",30,"[1, 4, 2, 3, 1, 3, 4, 2]","C",352,352,288,287,101,240,239,0,64,63,48,"reward",48
"143",0,4,256,255,288,287,416,415,"pen",2185,2016,230,230,"[4, 3, 1, 4, 2, 3, 1, 2]",5,"[4, 3, 1, 4, 2, 3, 1, 2]","A",256,255,256,255,101,400,400,1,144,143,48,"reward",48
"144",0,4,NA,NA,368,367,288,287,"pen",2185,1760,170,170,"[3, 2, 4, 1, 2, 4, 2]",10,"[3, 2, 4, 1, 2, 4, 3, 1]","B",NA,255,336,335,101,240,239,0,272,271,48,"reward",48
"145",0,5,224,223,352,352,176,175,"pen",2185,1888,305,305,"[1, 4, 2, 3, 1, 3, 4, 2]",30,"[1, 4, 2, 3, 1, 3, 4, 2]","C",336,335,480,479,101,176,175,1,144,143,49,"reward",49
"146",1,5,320,319,304,303,368,367,"pen",2185,1936,245,245,"[4, 3, 1, 4, 2, 3, 1, 2]",5,"[4, 3, 1, 4, 2, 3, 1, 2]","A",240,239,272,271,101,336,335,0,96,95,49,"reward",49
"147",0,5,NA,191,432,431,240,239,"pen",2183,2272,375,375,"[3, 2, 4, 1, 2, 4, 3, 2]",10,"[3, 2, 4, 1, 2, 4, 3, 1]","B",320,319,576,575,101,224,223,0,288,287,49,"reward",49
"148",0,5,NA,NA,304,303,464,463,"pen",2183,1760,229,229,"[4, 3, 1, 4, 2, 3, 2]",5,"[4, 3, 1, 4, 2, 3, 1, 2]","A",NA,255,288,287,101,336,335,0,112,111,50,"reward",50
"149",0,5,NA,NA,NA,NA,NA,NA,"pen",2183,416,394,394,"[4, 4]",5,"[4, 3, 1, 4, 2, 3, 1, 2]","A",NA,NA,NA,NA,101,NA,NA,0,NA,415,51,"reward",51
"150",1,5,304,303,304,303,336,335,"pen",2183,1888,244,244,"[4, 3, 1, 4, 2, 3, 1, 2]",5,"[4, 3, 1, 4, 2, 3, 1, 2]","A",256,255,256,255,101,320,319,0,112,111,52,"reward",52
"151",0,5,256,255,384,383,240,239,"pen",2166,2080,264,264,"[3, 2, 4, 1, 2, 4, 3, 1]",10,"[3, 2, 4, 1, 2, 4, 3, 1]","B",416,415,336,336,101,352,351,1,96,95,50,"reward",50
"152",0,5,NA,NA,NA,383,256,256,"pen",2166,864,185,185,"[3, 2, 4, 1, 3]",10,"[3, 2, 4, 1, 2, 4, 3, 1]","B",NA,NA,NA,NA,101,128,127,0,96,95,51,"reward",51
"153",0,5,400,399,432,431,416,415,"pen",2166,2896,566,566,"[4, 3, 1, 4, 2, 3, 1, 2]",5,"[4, 3, 1, 4, 2, 3, 1, 2]","A",352,351,368,367,101,448,447,1,480,479,53,"reward",53
"154",0,5,448,447,176,176,160,159,"pen",2166,1968,262,262,"[3, 2, 4, 1, 2, 4, 3, 1]",10,"[3, 2, 4, 1, 2, 4, 3, 1]","B",400,399,400,399,101,160,159,1,224,223,52,"reward",52
"155",1,5,272,271,208,207,272,271,"pen",2166,1904,115,115,"[1, 4, 2, 3, 1, 3, 4, 2]",30,"[1, 4, 2, 3, 1, 3, 4, 2]","C",384,383,336,335,101,192,191,0,240,239,50,"reward",50
"156",0,5,NA,NA,NA,NA,NA,NA,"pen",2149,576,273,273,"[1, 4, 3]",30,"[1, 4, 2, 3, 1, 3, 4, 2]","C",NA,NA,NA,NA,101,NA,351,0,224,223,51,"reward",51
"157",0,5,NA,NA,192,191,144,143,"pen",2149,976,282,282,"[1, 4, 2, 3, 1, 4]",30,"[1, 4, 2, 3, 1, 3, 4, 2]","C",NA,NA,NA,319,101,192,191,0,128,127,52,"reward",52
"158",0,5,304,303,432,431,176,175,"pen",2149,2112,275,275,"[3, 2, 4, 1, 2, 4, 3, 1]",10,"[3, 2, 4, 1, 2, 4, 3, 1]","B",416,415,384,383,101,192,191,1,208,207,53,"reward",53
"159",0,5,NA,NA,208,207,192,191,"pen",2149,1024,97,97,"[3, 2, 4, 1, 2, 3]",10,"[3, 2, 4, 1, 2, 4, 3, 1]","B",NA,NA,NA,271,101,176,175,0,176,175,54,"reward",54
"160",0,5,336,335,192,191,256,255,"pen",2149,2192,282,282,"[1, 4, 2, 3, 1, 3, 4, 2]",30,"[1, 4, 2, 3, 1, 3, 4, 2]","C",480,479,512,511,101,208,207,1,208,207,53,"reward",53
"161",0,5,320,319,448,447,416,415,"pen",2149,2736,517,517,"[4, 3, 1, 4, 2, 3, 1, 2]",5,"[4, 3, 1, 4, 2, 3, 1, 2]","A",320,319,320,319,101,464,463,1,448,447,54,"reward",54
"162",0,5,432,431,320,319,368,367,"pen",2149,2512,468,468,"[4, 3, 1, 4, 2, 3, 1, 2]",5,"[4, 3, 1, 4, 2, 3, 1, 2]","A",256,255,336,335,101,352,351,1,448,447,55,"reward",55
"163",1,5,224,223,240,239,224,223,"pen",2149,1856,258,258,"[1, 4, 2, 3, 1, 3, 4, 2]",30,"[1, 4, 2, 3, 1, 3, 4, 2]","C",336,335,336,335,101,256,255,0,240,239,54,"reward",54
"164",0,5,NA,NA,NA,NA,NA,NA,"pen",2149,352,449,449,"[3, 3]",10,"[3, 2, 4, 1, 2, 4, 3, 1]","B",NA,NA,NA,NA,101,NA,NA,0,NA,351,55,"reward",55
"165",1,5,192,191,496,495,112,111,"pen",2149,1840,231,231,"[1, 4, 2, 3, 1, 3, 4, 2]",30,"[1, 4, 2, 3, 1, 3, 4, 2]","C",368,367,336,335,101,208,207,0,128,127,55,"reward",55
"166",0,5,320,319,272,271,368,367,"pen",2149,1968,237,237,"[4, 3, 1, 4, 2, 3, 1, 2]",5,"[4, 3, 1, 4, 2, 3, 1, 2]","A",304,303,304,303,101,208,207,1,192,191,56,"reward",56
"167",0,5,320,319,320,319,384,383,"pen",2149,2160,436,436,"[4, 3, 1, 4, 2, 3, 1, 2]",5,"[4, 3, 1, 4, 2, 3, 1, 2]","A",256,255,288,287,101,320,319,1,272,271,57,"reward",57
"168",0,5,224,223,256,255,352,351,"pen",2149,1984,275,275,"[4, 3, 1, 4, 2, 3, 1, 2]",5,"[4, 3, 1, 4, 2, 3, 1, 2]","A",416,416,336,335,101,192,191,1,208,207,58,"reward",58
"169",0,5,NA,NA,NA,223,144,143,"pen",2149,784,33,33,"[1, 4, 2, 3, 2]",30,"[1, 4, 2, 3, 1, 3, 4, 2]","C",NA,NA,NA,NA,101,176,175,0,240,239,56,"reward",56
"170",0,5,NA,NA,256,255,144,143,"pen",2149,1072,265,265,"[1, 4, 2, 3, 1, 4]",30,"[1, 4, 2, 3, 1, 3, 4, 2]","C",NA,NA,NA,335,101,192,191,0,144,143,57,"reward",57
"171",0,5,224,223,288,287,272,271,"pen",2149,2032,262,262,"[1, 4, 2, 3, 1, 3, 4, 2]",30,"[1, 4, 2, 3, 1, 3, 4, 2]","C",368,367,320,319,101,272,271,1,288,287,58,"reward",58
"172",0,5,NA,NA,304,303,304,303,"pen",2149,1920,404,404,"[3, 2, 4, 1, 2, 4, 2]",10,"[3, 2, 4, 1, 2, 4, 3, 1]","B",NA,223,368,367,101,400,399,0,320,319,56,"reward",56
"173",0,5,NA,NA,NA,NA,NA,NA,"pen",2149,0,NA,15,"[1]",10,"[3, 2, 4, 1, 2, 4, 3, 1]","B",NA,NA,NA,NA,101,NA,NA,0,NA,NA,57,"reward",57
"174",0,5,NA,NA,NA,NA,NA,NA,"pen",2149,0,NA,91,"[4]",10,"[3, 2, 4, 1, 2, 4, 3, 1]","B",NA,NA,NA,NA,101,NA,NA,0,NA,NA,58,"reward",58
"175",1,5,192,191,240,239,240,239,"pen",2149,1632,270,270,"[1, 4, 2, 3, 1, 3, 4, 2]",30,"[1, 4, 2, 3, 1, 3, 4, 2]","C",320,319,400,399,101,160,159,0,80,79,59,"reward",59
"176",1,5,160,159,304,303,128,127,"pen",2133,1408,227,227,"[1, 4, 2, 3, 1, 3, 4, 2]",30,"[1, 4, 2, 3, 1, 3, 4, 2]","C",336,335,256,255,101,144,143,0,80,79,60,"reward",60
"177",0,5,NA,NA,NA,NA,NA,192,"pen",2132,592,387,387,"[3, 2, 4, 2]",10,"[3, 2, 4, 1, 2, 4, 3, 1]","B",NA,NA,NA,NA,101,160,159,0,240,239,59,"reward",59
"178",0,5,NA,NA,NA,NA,NA,NA,"pen",2132,144,53,53,"[4, 1]",5,"[4, 3, 1, 4, 2, 3, 1, 2]","A",NA,NA,NA,NA,101,NA,NA,0,NA,143,59,"reward",59
"179",0,5,NA,NA,NA,NA,NA,NA,"pen",2132,0,NA,54,"[2]",10,"[3, 2, 4, 1, 2, 4, 3, 1]","B",NA,NA,NA,NA,101,NA,NA,0,NA,NA,60,"reward",60
"180",0,5,NA,NA,192,191,416,415,"pen",2132,1424,401,401,"[4, 3, 1, 4, 2, 3, 2]",5,"[4, 3, 1, 4, 2, 3, 1, 2]","A",NA,191,240,239,101,288,287,0,96,95,60,"reward",60
"181",0,6,NA,NA,NA,NA,NA,NA,"pen",2132,0,NA,481,"[1]",10,"[3, 2, 4, 1, 2, 4, 3, 1]","B",NA,NA,NA,NA,101,NA,NA,0,NA,NA,61,"reward",61
"182",0,6,NA,NA,176,176,160,159,"pen",2132,960,277,277,"[1, 4, 2, 3, 1, 4]",30,"[1, 4, 2, 3, 1, 3, 4, 2]","C",NA,NA,NA,175,101,240,239,0,208,207,61,"reward",61
"183",0,6,NA,NA,NA,303,288,287,"pen",2132,1312,533,533,"[3, 2, 4, 1, 3]",10,"[3, 2, 4, 1, 2, 4, 3, 1]","B",NA,NA,NA,NA,101,368,367,0,352,351,62,"reward",62
"184",0,6,NA,NA,208,207,192,192,"pen",2132,1328,259,259,"[1, 4, 2, 3, 1, 3, 2]",30,"[1, 4, 2, 3, 1, 3, 4, 2]","C",NA,175,384,383,101,176,175,0,192,191,62,"reward",62
"185",0,6,NA,NA,NA,NA,NA,NA,"pen",2132,0,NA,920,"[3]",5,"[4, 3, 1, 4, 2, 3, 1, 2]","A",NA,NA,NA,NA,101,NA,NA,0,NA,NA,61,"reward",61
"186",0,6,496,495,272,271,336,335,"pen",2132,2576,338,338,"[4, 3, 1, 4, 2, 3, 1, 2]",5,"[4, 3, 1, 4, 2, 3, 1, 2]","A",256,255,384,383,101,336,335,1,496,495,62,"reward",62
"187",0,6,NA,NA,NA,NA,NA,NA,"pen",2132,0,NA,289,"[3]",5,"[4, 3, 1, 4, 2, 3, 1, 2]","A",NA,NA,NA,NA,101,NA,NA,0,NA,NA,63,"reward",63
"188",0,6,NA,NA,NA,223,240,239,"pen",2132,896,258,258,"[1, 4, 2, 3, 2]",30,"[1, 4, 2, 3, 1, 3, 4, 2]","C",NA,NA,NA,NA,101,256,255,0,176,175,63,"reward",63
"189",0,6,NA,NA,NA,NA,NA,NA,"pen",2132,320,530,530,"[3, 3]",10,"[3, 2, 4, 1, 2, 4, 3, 1]","B",NA,NA,NA,NA,101,NA,NA,0,NA,319,63,"reward",63
"190",0,6,NA,NA,NA,NA,NA,207,"pen",2132,752,347,347,"[3, 2, 4, 2]",10,"[3, 2, 4, 1, 2, 4, 3, 1]","B",NA,NA,NA,NA,101,224,223,0,320,319,64,"reward",64
"191",0,6,NA,NA,NA,NA,NA,303,"pen",2132,816,278,278,"[4, 3, 1, 3]",5,"[4, 3, 1, 4, 2, 3, 1, 2]","A",NA,NA,NA,NA,101,272,271,0,240,239,64,"reward",64
"192",0,6,480,479,256,255,304,303,"pen",2132,2128,260,260,"[1, 4, 2, 3, 1, 3, 4, 2]",30,"[1, 4, 2, 3, 1, 3, 4, 2]","C",400,399,368,367,101,256,255,1,64,63,64,"reward",64
"193",0,6,256,255,304,303,336,335,"pen",2132,2320,484,484,"[4, 3, 1, 4, 2, 3, 1, 2]",5,"[4, 3, 1, 4, 2, 3, 1, 2]","A",288,287,288,287,101,416,415,1,432,431,65,"reward",65
"194",0,6,NA,NA,NA,NA,NA,NA,"pen",2132,384,318,318,"[4, 4]",5,"[4, 3, 1, 4, 2, 3, 1, 2]","A",NA,NA,NA,NA,101,NA,NA,0,NA,383,66,"reward",66
"195",0,6,320,319,240,239,224,223,"pen",2132,2000,213,213,"[1, 4, 2, 3, 1, 3, 4, 2]",30,"[1, 4, 2, 3, 1, 3, 4, 2]","C",352,351,432,431,101,240,239,1,192,191,65,"reward",65
"196",0,6,NA,NA,NA,NA,NA,NA,"pen",2132,0,NA,436,"[3]",5,"[4, 3, 1, 4, 2, 3, 1, 2]","A",NA,NA,NA,NA,101,NA,NA,0,NA,NA,67,"reward",67
"197",0,6,NA,NA,NA,271,192,191,"pen",2132,880,162,162,"[1, 4, 2, 3, 2]",30,"[1, 4, 2, 3, 1, 3, 4, 2]","C",NA,NA,NA,NA,101,208,207,0,208,207,66,"reward",66
"198",0,6,NA,NA,240,239,272,271,"pen",2132,1152,230,230,"[1, 4, 2, 3, 1, 4]",30,"[1, 4, 2, 3, 1, 3, 4, 2]","C",NA,NA,NA,335,101,224,223,0,80,79,67,"reward",67
"199",0,6,NA,NA,NA,NA,NA,NA,"pen",2132,0,NA,177,"[1]",5,"[4, 3, 1, 4, 2, 3, 1, 2]","A",NA,NA,NA,NA,101,NA,NA,0,NA,NA,68,"reward",68
"200",0,6,352,351,272,271,384,383,"pen",2132,2992,12,12,"[4, 3, 1, 4, 2, 3, 1, 2]",5,"[4, 3, 1, 4, 2, 3, 1, 2]","A",256,255,272,271,101,400,399,1,1056,1054,69,"reward",69
"201",0,6,400,400,304,303,304,303,"pen",2132,2208,291,291,"[4, 3, 1, 4, 2, 3, 1, 2]",5,"[4, 3, 1, 4, 2, 3, 1, 2]","A",144,143,192,191,101,432,431,1,432,431,70,"reward",70
"202",0,6,NA,223,256,255,224,223,"pen",2132,1840,423,423,"[3, 2, 4, 1, 2, 4, 3, 2]",10,"[3, 2, 4, 1, 2, 4, 3, 1]","B",256,255,320,319,101,272,271,0,288,287,65,"reward",65
"203",1,6,240,239,352,351,176,175,"pen",2132,1840,262,262,"[1, 4, 2, 3, 1, 3, 4, 2]",30,"[1, 4, 2, 3, 1, 3, 4, 2]","C",368,367,352,351,101,208,207,0,144,143,68,"reward",68
"204",0,6,352,351,288,287,304,303,"pen",2133,2128,289,289,"[4, 3, 1, 4, 2, 3, 1, 2]",5,"[4, 3, 1, 4, 2, 3, 1, 2]","A",240,239,240,239,101,352,351,1,352,351,71,"reward",71
"205",0,6,NA,NA,NA,NA,NA,223,"pen",2133,688,354,354,"[3, 2, 4, 2]",10,"[3, 2, 4, 1, 2, 4, 3, 1]","B",NA,NA,NA,NA,101,224,223,0,240,239,66,"reward",66
"206",0,6,320,319,352,351,272,271,"pen",2133,2224,295,295,"[3, 2, 4, 1, 2, 4, 3, 1]",10,"[3, 2, 4, 1, 2, 4, 3, 1]","B",432,431,400,399,101,208,207,1,240,239,67,"reward",67
"207",0,6,256,255,352,351,224,223,"pen",2133,2016,360,360,"[3, 2, 4, 1, 2, 4, 3, 1]",10,"[3, 2, 4, 1, 2, 4, 3, 1]","B",384,383,384,383,101,192,191,1,224,223,68,"reward",68
"208",0,6,288,287,352,351,272,271,"pen",2133,2160,352,352,"[3, 2, 4, 1, 2, 4, 3, 1]",10,"[3, 2, 4, 1, 2, 4, 3, 1]","B",368,367,320,319,101,240,239,1,320,319,69,"reward",69
"209",1,6,192,191,272,271,304,304,"pen",2133,1872,198,198,"[1, 4, 2, 3, 1, 3, 4, 2]",30,"[1, 4, 2, 3, 1, 3, 4, 2]","C",336,335,496,495,101,160,159,0,112,111,69,"reward",69
"210",0,6,NA,NA,NA,239,160,159,"pen",2132,704,273,273,"[1, 4, 2, 3, 2]",30,"[1, 4, 2, 3, 1, 3, 4, 2]","C",NA,NA,NA,NA,101,160,159,0,144,143,70,"reward",70
"211",0,6,NA,NA,272,271,288,287,"pen",2132,1616,419,419,"[3, 2, 4, 1, 2, 3]",10,"[3, 2, 4, 1, 2, 4, 3, 1]","B",NA,NA,NA,351,101,320,319,0,384,383,70,"reward",70
"212",0,6,320,319,288,287,368,367,"pen",2132,2192,279,279,"[4, 3, 1, 4, 2, 3, 1, 2]",5,"[4, 3, 1, 4, 2, 3, 1, 2]","A",320,319,320,319,101,288,287,1,288,287,72,"reward",72
"213",1,6,192,191,240,239,272,271,"pen",2132,1808,129,129,"[1, 4, 2, 3, 1, 3, 4, 2]",30,"[1, 4, 2, 3, 1, 3, 4, 2]","C",320,319,352,351,101,224,223,0,208,207,71,"reward",71
"214",0,6,256,255,320,319,288,287,"pen",2103,2112,1036,1036,"[3, 2, 4, 1, 2, 4, 3, 1]",10,"[3, 2, 4, 1, 2, 4, 3, 1]","B",320,319,368,367,101,272,271,1,288,287,71,"reward",71
"215",0,6,NA,NA,320,319,224,223,"pen",2103,1232,307,307,"[3, 2, 4, 1, 2, 3]",10,"[3, 2, 4, 1, 2, 4, 3, 1]","B",NA,NA,NA,271,101,176,175,0,240,239,72,"reward",72
"216",0,6,NA,NA,256,255,144,143,"pen",2103,960,255,255,"[1, 4, 2, 3, 1, 4]",30,"[1, 4, 2, 3, 1, 3, 4, 2]","C",NA,NA,NA,271,101,176,175,0,112,111,72,"reward",72
"217",0,7,208,207,320,319,224,224,"pen",2103,1888,241,241,"[3, 2, 4, 1, 2, 4, 3, 1]",10,"[3, 2, 4, 1, 2, 4, 3, 1]","B",480,479,352,351,101,192,191,1,112,111,73,"reward",73
"218",0,7,NA,NA,256,256,240,240,"pen",2103,1120,155,155,"[1, 4, 2, 3, 1, 4]",30,"[1, 4, 2, 3, 1, 3, 4, 2]","C",NA,NA,NA,367,101,144,143,0,112,111,73,"reward",73
"219",1,7,144,143,336,335,144,143,"pen",2103,1744,338,338,"[1, 4, 2, 3, 1, 3, 4, 2]",30,"[1, 4, 2, 3, 1, 3, 4, 2]","C",352,351,432,431,101,176,175,0,160,159,74,"reward",74
"220",1,7,192,191,176,176,144,143,"pen",2087,1840,246,246,"[1, 4, 2, 3, 1, 3, 4, 2]",30,"[1, 4, 2, 3, 1, 3, 4, 2]","C",432,431,560,559,101,192,192,0,144,143,75,"reward",75
"221",0,7,320,319,496,495,320,319,"pen",2071,2192,277,277,"[3, 2, 4, 1, 2, 4, 3, 1]",10,"[3, 2, 4, 1, 2, 4, 3, 1]","B",368,367,400,399,101,160,159,1,128,127,74,"reward",74
"222",1,7,160,159,224,223,112,111,"pen",2071,1568,204,204,"[1, 4, 2, 3, 1, 3, 4, 2]",30,"[1, 4, 2, 3, 1, 3, 4, 2]","C",304,303,432,431,101,192,191,0,144,143,76,"reward",76
"223",1,7,336,335,320,319,240,240,"pen",2071,1792,279,279,"[3, 2, 4, 1, 2, 4, 3, 1]",10,"[3, 2, 4, 1, 2, 4, 3, 1]","B",368,367,272,271,101,176,175,0,80,79,75,"reward",75
"224",1,7,160,160,352,351,144,143,"pen",2071,1632,130,130,"[1, 4, 2, 3, 1, 3, 4, 2]",30,"[1, 4, 2, 3, 1, 3, 4, 2]","C",176,175,528,527,101,128,127,0,144,143,77,"reward",77
"225",0,7,256,255,208,207,384,383,"pen",2039,1856,268,268,"[4, 3, 1, 4, 2, 3, 1, 2]",5,"[4, 3, 1, 4, 2, 3, 1, 2]","A",240,239,448,447,101,208,208,1,112,111,73,"reward",73
"226",1,7,176,175,176,175,112,112,"pen",2039,1360,277,277,"[1, 4, 2, 3, 1, 3, 4, 2]",30,"[1, 4, 2, 3, 1, 3, 4, 2]","C",320,319,336,336,101,144,143,0,96,95,78,"reward",78
"227",1,7,384,383,272,271,416,415,"pen",2036,1904,81,81,"[4, 3, 1, 4, 2, 3, 1, 2]",5,"[4, 3, 1, 4, 2, 3, 1, 2]","A",240,239,320,319,101,112,111,0,160,159,74,"reward",74
"228",1,7,240,239,304,304,160,160,"pen",2036,1696,145,145,"[3, 2, 4, 1, 2, 4, 3, 1]",10,"[3, 2, 4, 1, 2, 4, 3, 1]","B",400,399,320,319,101,160,159,0,112,111,76,"reward",76
"229",0,7,NA,NA,416,415,368,367,"pen",2023,1744,29,29,"[3, 2, 4, 1, 2, 4, 2]",10,"[3, 2, 4, 1, 2, 4, 3, 1]","B",NA,303,304,303,101,144,143,0,208,207,77,"reward",77
"230",0,7,NA,NA,NA,NA,NA,NA,"pen",2023,160,266,266,"[4, 1]",5,"[4, 3, 1, 4, 2, 3, 1, 2]","A",NA,NA,NA,NA,101,NA,NA,0,NA,159,75,"reward",75
"231",1,7,208,207,384,383,176,176,"pen",2023,1552,175,175,"[3, 2, 4, 1, 2, 4, 3, 1]",10,"[3, 2, 4, 1, 2, 4, 3, 1]","B",304,303,256,255,101,128,127,0,96,95,78,"reward",78
"232",1,7,160,159,256,255,192,192,"pen",2023,1680,251,251,"[1, 4, 2, 3, 1, 3, 4, 2]",30,"[1, 4, 2, 3, 1, 3, 4, 2]","C",288,287,512,511,101,176,175,0,96,95,79,"reward",79
"233",0,7,NA,NA,240,239,128,127,"pen",2023,1056,175,175,"[1, 4, 2, 3, 1, 4]",30,"[1, 4, 2, 3, 1, 3, 4, 2]","C",NA,NA,NA,351,101,176,175,0,160,159,80,"reward",80
"234",0,7,NA,NA,NA,NA,NA,239,"pen",2023,736,542,542,"[4, 3, 1, 3]",5,"[4, 3, 1, 4, 2, 3, 1, 2]","A",NA,NA,NA,NA,101,224,223,0,272,271,76,"reward",76
"235",0,7,288,287,384,383,240,239,"pen",2023,1792,281,281,"[3, 2, 4, 1, 2, 4, 3, 1]",10,"[3, 2, 4, 1, 2, 4, 3, 1]","B",336,335,272,271,101,112,111,1,160,159,79,"reward",79
"236",1,7,352,351,288,287,336,335,"pen",2023,1776,188,188,"[4, 3, 1, 4, 2, 3, 1, 2]",5,"[4, 3, 1, 4, 2, 3, 1, 2]","A",256,255,208,207,101,176,175,0,160,159,77,"reward",77
"237",1,7,192,191,208,207,176,175,"pen",2003,1504,244,244,"[1, 4, 2, 3, 1, 3, 4, 2]",30,"[1, 4, 2, 3, 1, 3, 4, 2]","C",320,319,256,255,101,192,192,0,160,159,81,"reward",81
"238",1,7,128,127,400,400,224,224,"pen",1971,1664,197,197,"[1, 4, 2, 3, 1, 3, 4, 2]",30,"[1, 4, 2, 3, 1, 3, 4, 2]","C",288,287,384,383,101,176,175,0,64,63,82,"reward",82
"239",0,7,320,319,336,335,368,367,"pen",1923,1888,225,225,"[4, 3, 1, 4, 2, 3, 1, 2]",5,"[4, 3, 1, 4, 2, 3, 1, 2]","A",256,255,288,287,101,160,159,1,160,159,78,"reward",78
"240",0,7,NA,NA,NA,NA,NA,NA,"pen",1923,0,NA,181,"[1]",5,"[4, 3, 1, 4, 2, 3, 1, 2]","A",NA,NA,NA,NA,101,NA,NA,0,NA,NA,79,"reward",79
"241",0,7,400,399,272,271,384,383,"pen",1923,1712,264,264,"[4, 3, 1, 4, 2, 3, 1, 2]",5,"[4, 3, 1, 4, 2, 3, 1, 2]","A",128,127,208,207,101,208,207,1,112,111,80,"reward",80
"242",0,7,NA,NA,400,399,304,303,"pen",1923,1536,23,23,"[3, 2, 4, 1, 2, 4, 2]",10,"[3, 2, 4, 1, 2, 4, 3, 1]","B",NA,207,272,271,101,224,223,0,128,126,80,"reward",80
"243",0,7,NA,NA,NA,NA,NA,NA,"pen",1923,400,449,449,"[4, 4]",5,"[4, 3, 1, 4, 2, 3, 1, 2]","A",NA,NA,NA,NA,101,NA,NA,0,NA,399,81,"reward",81
"244",0,7,288,287,336,335,224,223,"pen",1923,1744,310,310,"[3, 2, 4, 1, 2, 4, 3, 1]",10,"[3, 2, 4, 1, 2, 4, 3, 1]","B",384,384,256,255,101,128,127,1,128,127,81,"reward",81
"245",1,7,304,303,304,303,192,191,"pen",1923,1600,295,295,"[3, 2, 4, 1, 2, 4, 3, 1]",10,"[3, 2, 4, 1, 2, 4, 3, 1]","B",320,319,224,223,101,144,143,0,112,111,82,"reward",82
"246",0,7,224,223,224,223,208,207,"pen",1907,1760,276,276,"[3, 2, 4, 1, 2, 4, 3, 1]",10,"[3, 2, 4, 1, 2, 4, 3, 1]","B",400,399,432,431,101,160,159,1,112,111,83,"reward",83
"247",0,7,NA,NA,336,335,160,159,"pen",1907,1088,262,262,"[3, 2, 4, 1, 2, 3]",10,"[3, 2, 4, 1, 2, 4, 3, 1]","B",NA,NA,NA,255,101,208,207,0,128,127,84,"reward",84
"248",0,7,NA,NA,256,255,160,159,"pen",1907,1040,129,129,"[1, 4, 2, 3, 1, 4]",30,"[1, 4, 2, 3, 1, 3, 4, 2]","C",NA,NA,NA,303,101,192,191,0,128,127,83,"reward",83
"249",0,7,NA,NA,192,191,128,127,"pen",1907,960,232,232,"[1, 4, 2, 3, 1, 4]",30,"[1, 4, 2, 3, 1, 3, 4, 2]","C",NA,NA,NA,335,101,208,207,0,96,95,84,"reward",84
"250",0,7,304,303,304,303,400,399,"pen",1907,2080,345,345,"[4, 3, 1, 4, 2, 3, 1, 2]",5,"[4, 3, 1, 4, 2, 3, 1, 2]","A",272,271,240,239,101,320,319,1,240,239,82,"reward",82
"251",0,7,304,303,224,223,352,352,"pen",1907,1744,246,246,"[4, 3, 1, 4, 2, 3, 1, 2]",5,"[4, 3, 1, 4, 2, 3, 1, 2]","A",224,223,288,287,101,176,175,1,176,175,83,"reward",83
"252",1,7,288,287,224,223,336,335,"pen",1907,1632,241,241,"[4, 3, 1, 4, 2, 3, 1, 2]",5,"[4, 3, 1, 4, 2, 3, 1, 2]","A",112,111,304,303,101,208,208,0,160,159,84,"reward",84
"253",0,8,NA,NA,NA,NA,NA,271,"pen",1891,592,273,273,"[4, 3, 1, 3]",5,"[4, 3, 1, 4, 2, 3, 1, 2]","A",NA,NA,NA,NA,101,208,207,0,112,111,85,"reward",85
"254",1,8,352,351,336,335,208,207,"pen",1891,1696,109,109,"[4, 3, 1, 4, 2, 3, 1, 2]",5,"[4, 3, 1, 4, 2, 3, 1, 2]","A",256,255,208,207,101,224,223,0,112,111,86,"reward",86
"255",0,8,256,256,272,271,416,415,"pen",1884,1632,257,257,"[4, 3, 1, 4, 2, 3, 1, 2]",5,"[4, 3, 1, 4, 2, 3, 1, 2]","A",160,159,224,223,101,224,223,1,80,79,87,"reward",87
"256",0,8,NA,NA,NA,319,288,287,"pen",1884,784,264,264,"[3, 2, 4, 1, 3]",10,"[3, 2, 4, 1, 2, 4, 3, 1]","B",NA,NA,NA,NA,101,96,95,0,80,79,85,"reward",85
"257",0,8,NA,NA,368,367,320,319,"pen",1884,1680,143,143,"[3, 2, 4, 1, 2, 3]",10,"[3, 2, 4, 1, 2, 4, 3, 1]","B",NA,NA,NA,351,101,304,303,0,336,335,86,"reward",86
"258",0,8,NA,NA,416,415,176,175,"pen",1884,1424,177,177,"[3, 2, 4, 1, 2, 4, 2]",10,"[3, 2, 4, 1, 2, 4, 3, 1]","B",NA,239,352,351,101,128,127,0,112,111,87,"reward",87
"259",0,8,304,303,256,255,320,319,"pen",1884,1808,114,114,"[4, 3, 1, 4, 2, 3, 1, 2]",5,"[4, 3, 1, 4, 2, 3, 1, 2]","A",272,271,288,287,101,272,271,1,96,95,88,"reward",88
"260",0,8,256,255,320,319,304,303,"pen",1884,1840,438,438,"[3, 2, 4, 1, 2, 4, 3, 1]",10,"[3, 2, 4, 1, 2, 4, 3, 1]","B",368,367,272,271,101,208,207,1,112,111,88,"reward",88
"261",1,8,112,111,272,271,224,224,"pen",1884,1792,12,12,"[1, 4, 2, 3, 1, 3, 4, 2]",30,"[1, 4, 2, 3, 1, 3, 4, 2]","C",368,367,464,463,101,256,255,0,96,94,85,"reward",85
"262",0,8,400,399,320,320,160,159,"pen",1894,1792,253,253,"[4, 3, 1, 4, 2, 3, 1, 2]",5,"[4, 3, 1, 4, 2, 3, 1, 2]","A",320,319,240,239,101,256,255,1,96,95,89,"reward",89
"263",0,8,NA,NA,592,592,128,127,"pen",1894,1280,284,284,"[3, 2, 4, 1, 2, 3]",10,"[3, 2, 4, 1, 2, 4, 3, 1]","B",NA,NA,NA,383,101,64,63,0,112,111,89,"reward",89
"264",0,8,464,463,448,448,144,143,"pen",1894,1872,260,260,"[4, 3, 1, 4, 2, 3, 1, 2]",5,"[4, 3, 1, 4, 2, 3, 1, 2]","A",208,207,416,415,101,64,63,1,128,127,90,"reward",90
"265",0,8,NA,NA,240,239,128,127,"pen",1894,944,258,258,"[4, 3, 1, 4, 2, 4]",5,"[4, 3, 1, 4, 2, 3, 1, 2]","A",NA,NA,NA,303,101,128,127,0,144,143,91,"reward",91
"266",0,8,NA,NA,320,319,128,128,"pen",1894,1376,19,19,"[1, 4, 2, 3, 1, 3, 2]",30,"[1, 4, 2, 3, 1, 3, 4, 2]","C",NA,271,336,335,101,176,175,0,144,142,86,"reward",86
"267",0,8,NA,NA,240,239,160,160,"pen",1894,1392,279,279,"[3, 2, 4, 1, 2, 4, 2]",10,"[3, 2, 4, 1, 2, 4, 3, 1]","B",NA,255,480,479,101,160,159,0,96,95,90,"reward",90
"268",0,8,NA,NA,240,239,240,239,"pen",1894,1120,327,327,"[1, 4, 2, 3, 1, 4]",30,"[1, 4, 2, 3, 1, 3, 4, 2]","C",NA,NA,NA,207,101,208,207,0,224,223,87,"reward",87
"269",0,8,NA,NA,NA,495,448,447,"pen",1894,1936,722,722,"[3, 2, 4, 1, 3]",10,"[3, 2, 4, 1, 2, 4, 3, 1]","B",NA,NA,NA,NA,101,528,527,0,464,463,91,"reward",91
"270",0,8,400,399,160,159,112,112,"pen",1894,1808,272,272,"[1, 4, 2, 3, 1, 3, 4, 2]",30,"[1, 4, 2, 3, 1, 3, 4, 2]","C",352,351,544,543,101,144,143,1,96,95,88,"reward",88
"271",1,8,160,159,176,175,128,127,"pen",1894,1600,277,277,"[1, 4, 2, 3, 1, 3, 4, 2]",30,"[1, 4, 2, 3, 1, 3, 4, 2]","C",384,383,480,479,101,176,175,0,96,95,89,"reward",89
"272",0,8,368,367,416,415,176,175,"pen",1878,1872,131,131,"[4, 3, 1, 4, 2, 3, 1, 2]",5,"[4, 3, 1, 4, 2, 3, 1, 2]","A",432,431,256,255,101,112,111,1,112,111,92,"reward",92
"273",1,8,448,448,288,287,208,207,"pen",1878,1520,250,250,"[4, 3, 1, 4, 2, 3, 1, 2]",5,"[4, 3, 1, 4, 2, 3, 1, 2]","A",128,127,272,271,101,96,95,0,80,79,93,"reward",93
"274",0,8,NA,NA,176,175,96,96,"pen",1868,912,255,255,"[1, 4, 2, 3, 1, 4]",30,"[1, 4, 2, 3, 1, 3, 4, 2]","C",NA,NA,NA,336,101,144,143,0,160,159,90,"reward",90
"275",0,8,160,159,432,431,96,96,"pen",1868,1680,275,275,"[1, 4, 2, 3, 1, 3, 4, 2]",30,"[1, 4, 2, 3, 1, 3, 4, 2]","C",368,367,336,335,101,176,175,1,112,111,91,"reward",91
"276",0,8,416,415,368,367,192,192,"pen",1868,1712,291,291,"[4, 3, 1, 4, 2, 3, 1, 2]",5,"[4, 3, 1, 4, 2, 3, 1, 2]","A",176,175,224,223,101,240,239,1,96,95,94,"reward",94
"277",1,8,96,95,240,239,144,144,"pen",1868,1600,180,180,"[1, 4, 2, 3, 1, 3, 4, 2]",30,"[1, 4, 2, 3, 1, 3, 4, 2]","C",496,495,368,368,101,144,143,0,112,111,92,"reward",92
"278",0,8,NA,NA,192,191,112,112,"pen",1836,736,297,297,"[1, 4, 2, 3, 1, 4]",30,"[1, 4, 2, 3, 1, 3, 4, 2]","C",NA,NA,NA,191,101,144,143,0,96,95,93,"reward",93
"279",0,8,NA,NA,NA,255,144,143,"pen",1836,624,131,131,"[3, 2, 4, 1, 3]",10,"[3, 2, 4, 1, 2, 4, 3, 1]","B",NA,NA,NA,NA,101,112,111,0,112,111,92,"reward",92
"280",0,8,NA,NA,480,479,128,127,"pen",1836,1184,234,234,"[1, 4, 2, 3, 1, 4]",30,"[1, 4, 2, 3, 1, 3, 4, 2]","C",NA,NA,NA,239,101,176,175,0,160,159,94,"reward",94
"281",1,8,112,111,208,207,128,127,"pen",1836,1568,237,237,"[1, 4, 2, 3, 1, 3, 4, 2]",30,"[1, 4, 2, 3, 1, 3, 4, 2]","C",320,319,496,495,101,176,175,0,128,127,95,"reward",95
"282",0,8,336,335,304,303,272,271,"pen",1836,1952,461,461,"[4, 3, 1, 4, 2, 3, 1, 2]",5,"[4, 3, 1, 4, 2, 3, 1, 2]","A",256,255,272,271,101,224,223,1,288,287,95,"reward",95
"283",0,8,NA,NA,NA,383,144,144,"pen",1836,736,258,258,"[3, 2, 4, 1, 3]",10,"[3, 2, 4, 1, 2, 4, 3, 1]","B",NA,NA,NA,NA,101,112,111,0,96,95,93,"reward",93
"284",0,8,NA,NA,192,191,144,143,"pen",1836,1264,420,420,"[3, 2, 4, 1, 2, 4, 2]",10,"[3, 2, 4, 1, 2, 4, 3, 1]","B",NA,159,416,415,101,208,207,0,144,143,94,"reward",94
"285",0,8,NA,NA,224,223,144,143,"pen",1836,1280,248,248,"[4, 3, 1, 4, 2, 3, 2]",5,"[4, 3, 1, 4, 2, 3, 1, 2]","A",NA,303,320,319,101,176,175,0,112,111,96,"reward",96
"286",0,8,NA,NA,NA,192,80,80,"pen",1836,512,207,207,"[1, 4, 2, 3, 2]",30,"[1, 4, 2, 3, 1, 3, 4, 2]","C",NA,NA,NA,NA,101,144,143,0,96,95,96,"reward",96
"287",0,8,368,367,368,367,368,367,"pen",1836,2720,644,644,"[3, 2, 4, 1, 2, 4, 3, 1]",10,"[3, 2, 4, 1, 2, 4, 3, 1]","B",368,367,432,431,101,384,383,1,432,431,95,"reward",95
"288",0,8,NA,NA,NA,335,144,144,"pen",1836,752,288,288,"[3, 2, 4, 1, 3]",10,"[3, 2, 4, 1, 2, 4, 3, 1]","B",NA,NA,NA,NA,101,160,159,0,112,111,96,"reward",96
"289",0,9,NA,NA,352,351,192,191,"pen",1836,1104,177,177,"[3, 2, 4, 1, 2, 3]",10,"[3, 2, 4, 1, 2, 4, 3, 1]","B",NA,NA,NA,287,101,160,159,0,112,111,97,"reward",97
"290",1,9,128,127,240,239,144,144,"pen",1836,1536,215,215,"[1, 4, 2, 3, 1, 3, 4, 2]",30,"[1, 4, 2, 3, 1, 3, 4, 2]","C",320,319,416,415,101,160,159,0,128,127,97,"reward",97
"291",0,9,224,223,336,335,240,239,"pen",1804,2032,248,248,"[3, 2, 4, 1, 2, 4, 3, 1]",10,"[3, 2, 4, 1, 2, 4, 3, 1]","B",384,383,352,351,101,256,255,1,240,239,98,"reward",98
"292",0,9,NA,NA,192,191,112,111,"pen",1804,960,200,200,"[1, 4, 2, 3, 1, 4]",30,"[1, 4, 2, 3, 1, 3, 4, 2]","C",NA,NA,NA,367,101,176,175,0,112,111,98,"reward",98
"293",0,9,NA,NA,NA,NA,NA,NA,"pen",1804,400,740,740,"[4, 4]",5,"[4, 3, 1, 4, 2, 3, 1, 2]","A",NA,NA,NA,NA,101,NA,NA,0,NA,399,97,"reward",97
"294",0,9,128,127,336,335,128,128,"pen",1804,1600,219,219,"[1, 4, 2, 3, 1, 3, 4, 2]",30,"[1, 4, 2, 3, 1, 3, 4, 2]","C",336,335,384,383,101,176,175,1,112,111,99,"reward",99
"295",0,9,NA,NA,NA,287,480,480,"pen",1804,1168,401,401,"[3, 2, 4, 1, 3]",10,"[3, 2, 4, 1, 2, 4, 3, 1]","B",NA,NA,NA,NA,101,160,159,0,240,239,99,"reward",99
"296",0,9,272,271,240,239,320,319,"pen",1804,2128,404,404,"[4, 3, 1, 4, 2, 3, 1, 2]",5,"[4, 3, 1, 4, 2, 3, 1, 2]","A",240,239,192,191,101,272,271,1,592,591,98,"reward",98
"297",0,9,NA,NA,352,351,128,127,"pen",1804,1072,258,258,"[1, 4, 2, 3, 1, 4]",30,"[1, 4, 2, 3, 1, 3, 4, 2]","C",NA,NA,NA,383,101,96,95,0,112,111,100,"reward",100
"298",1,9,160,159,224,223,192,191,"pen",1804,1568,133,133,"[1, 4, 2, 3, 1, 3, 4, 2]",30,"[1, 4, 2, 3, 1, 3, 4, 2]","C",304,303,304,303,101,176,175,0,208,207,101,"reward",101
"299",0,9,NA,NA,160,159,128,127,"pen",1797,880,227,227,"[1, 4, 2, 3, 1, 4]",30,"[1, 4, 2, 3, 1, 3, 4, 2]","C",NA,NA,NA,288,101,127,127,0,177,176,102,"reward",102
"300",0,9,NA,NA,224,223,144,143,"pen",1797,864,195,195,"[3, 2, 4, 1, 2, 3]",10,"[3, 2, 4, 1, 2, 4, 3, 1]","B",NA,NA,NA,239,101,144,143,0,112,111,100,"reward",100
"301",1,9,288,287,256,256,176,176,"pen",1797,1584,50,50,"[3, 2, 4, 1, 2, 4, 3, 1]",10,"[3, 2, 4, 1, 2, 4, 3, 1]","B",288,287,304,303,101,160,159,0,112,111,101,"reward",101
"302",0,9,NA,NA,NA,NA,NA,NA,"pen",1788,272,467,467,"[4, 2]",5,"[4, 3, 1, 4, 2, 3, 1, 2]","A",NA,NA,NA,NA,101,NA,NA,0,NA,271,99,"reward",99
"303",0,9,208,207,288,288,176,175,"pen",1788,1616,197,197,"[1, 4, 2, 3, 1, 3, 4, 2]",30,"[1, 4, 2, 3, 1, 3, 4, 2]","C",304,303,352,352,101,176,175,1,112,111,103,"reward",103
"304",0,9,256,256,240,239,400,399,"pen",1788,1664,255,255,"[4, 3, 1, 4, 2, 3, 1, 2]",5,"[4, 3, 1, 4, 2, 3, 1, 2]","A",176,175,240,239,101,207,207,1,145,144,100,"reward",100
"305",0,9,NA,NA,304,303,176,175,"pen",1788,1344,423,423,"[3, 2, 4, 1, 2, 4, 2]",10,"[3, 2, 4, 1, 2, 4, 3, 1]","B",NA,223,320,319,101,192,191,0,128,127,102,"reward",102
"306",0,9,NA,NA,NA,NA,NA,319,"pen",1788,624,54,54,"[4, 3, 1, 3]",5,"[4, 3, 1, 4, 2, 3, 1, 2]","A",NA,NA,NA,NA,101,192,191,0,112,111,101,"reward",101
"307",0,9,320,319,400,400,192,191,"pen",1788,1744,229,229,"[3, 2, 4, 1, 2, 4, 3, 1]",10,"[3, 2, 4, 1, 2, 4, 3, 1]","B",336,335,256,255,101,128,127,1,112,111,103,"reward",103
"308",0,9,NA,NA,NA,NA,NA,NA,"pen",1788,0,NA,180,"[4]",30,"[1, 4, 2, 3, 1, 3, 4, 2]","C",NA,NA,NA,NA,101,NA,NA,0,NA,NA,104,"reward",104
"309",0,9,NA,NA,NA,303,208,207,"pen",1788,816,174,174,"[3, 2, 4, 1, 4]",10,"[3, 2, 4, 1, 2, 4, 3, 1]","B",NA,NA,NA,NA,101,160,159,0,144,143,104,"reward",104
"310",0,9,240,239,288,287,224,223,"pen",1788,1856,147,147,"[3, 2, 4, 1, 2, 4, 3, 1]",10,"[3, 2, 4, 1, 2, 4, 3, 1]","B",432,431,272,271,101,192,191,1,208,207,105,"reward",105
"311",0,9,NA,NA,272,271,256,255,"pen",1788,1184,178,178,"[1, 4, 2, 3, 1, 4]",30,"[1, 4, 2, 3, 1, 3, 4, 2]","C",NA,NA,NA,271,101,192,191,0,192,191,105,"reward",105
"312",1,9,176,175,256,255,128,127,"pen",1788,1664,100,100,"[1, 4, 2, 3, 1, 3, 4, 2]",30,"[1, 4, 2, 3, 1, 3, 4, 2]","C",400,399,384,383,101,208,207,0,112,111,106,"reward",106
"313",0,9,336,335,224,223,352,352,"pen",1788,1728,81,81,"[4, 3, 1, 4, 2, 3, 1, 2]",5,"[4, 3, 1, 4, 2, 3, 1, 2]","A",240,239,240,239,101,224,223,1,112,111,102,"reward",102
"314",0,9,NA,NA,240,240,192,191,"pen",1788,1137,157,157,"[3, 2, 4, 1, 2, 4, 2]",10,"[3, 2, 4, 1, 2, 4, 3, 1]","B",NA,160,320,319,101,112,111,0,112,111,106,"reward",106
"315",0,9,256,255,288,287,320,319,"pen",1788,2240,366,366,"[4, 3, 1, 4, 2, 3, 1, 2]",5,"[4, 3, 1, 4, 2, 3, 1, 2]","A",288,287,320,319,101,288,287,1,480,479,103,"reward",103
"316",0,9,240,239,384,383,160,159,"pen",1788,1584,256,256,"[3, 2, 4, 1, 2, 4, 3, 1]",10,"[3, 2, 4, 1, 2, 4, 3, 1]","B",272,271,288,288,101,144,143,1,96,95,107,"reward",107
"317",0,9,64,63,400,399,112,112,"pen",1788,1936,63,63,"[1, 4, 2, 3, 1, 3, 4, 2]",30,"[1, 4, 2, 3, 1, 3, 4, 2]","C",288,287,784,783,101,160,159,1,128,127,107,"reward",107
"318",1,9,272,271,240,239,304,304,"pen",1788,1488,179,179,"[4, 3, 1, 4, 2, 3, 1, 2]",5,"[4, 3, 1, 4, 2, 3, 1, 2]","A",224,223,224,223,101,112,111,0,112,111,104,"reward",104
"319",1,9,256,255,224,223,336,335,"pen",1780,1504,246,246,"[4, 3, 1, 4, 2, 3, 1, 2]",5,"[4, 3, 1, 4, 2, 3, 1, 2]","A",176,175,208,207,101,208,207,0,96,95,105,"reward",105
"320",1,9,336,335,288,288,160,159,"pen",1788,1328,49,49,"[4, 3, 1, 4, 2, 3, 1, 2]",5,"[4, 3, 1, 4, 2, 3, 1, 2]","A",144,143,224,223,101,80,79,0,96,95,106,"reward",106
"321",1,9,208,208,320,319,192,191,"pen",1772,1296,172,172,"[4, 3, 1, 4, 2, 3, 1, 2]",5,"[4, 3, 1, 4, 2, 3, 1, 2]","A",144,143,256,255,101,80,79,0,96,95,107,"reward",107
"322",0,9,NA,NA,NA,NA,NA,NA,"pen",1772,0,NA,108,"[2]",10,"[3, 2, 4, 1, 2, 4, 3, 1]","B",NA,NA,NA,NA,101,NA,NA,0,NA,NA,108,"reward",108
"323",1,9,112,111,288,287,112,111,"pen",1772,1488,259,259,"[1, 4, 2, 3, 1, 3, 4, 2]",30,"[1, 4, 2, 3, 1, 3, 4, 2]","C",384,383,256,255,101,240,239,0,96,95,108,"reward",108
"324",1,9,192,191,208,207,192,191,"pen",1756,1552,114,114,"[4, 3, 1, 4, 2, 3, 1, 2]",5,"[4, 3, 1, 4, 2, 3, 1, 2]","A",512,511,192,191,101,144,143,0,112,111,108,"reward",108
"325",1,1,352,351,400,400,352,352,"pen",NA,2720,507,507,"[3, 2, 4, 1, 2, 4, 3, 1]",NA,"[3, 2, 4, 1, 2, 4, 3, 1]","B",400,400,464,464,101,368,368,0,384,384,1,"test",1
"326",1,1,384,384,368,368,352,352,"pen",NA,2416,374,374,"[4, 3, 1, 4, 2, 3, 1, 2]",NA,"[4, 3, 1, 4, 2, 3, 1, 2]","A",320,320,336,336,101,336,336,0,320,320,1,"test",1
"327",1,1,384,384,352,352,400,400,"pen",NA,2448,327,327,"[4, 3, 1, 4, 2, 3, 1, 2]",NA,"[4, 3, 1, 4, 2, 3, 1, 2]","A",320,320,368,368,101,336,336,0,288,288,2,"test",2
"328",1,1,336,336,448,447,352,352,"pen",NA,2704,486,486,"[3, 4, 2, 1, 3, 4, 2, 1]",NA,"[3, 4, 2, 1, 3, 4, 2, 1]","random",352,352,384,384,101,432,432,0,400,400,1,"test",1
"329",1,1,304,304,352,352,432,432,"pen",NA,2720,552,552,"[1, 4, 2, 3, 1, 3, 4, 2]",NA,"[1, 4, 2, 3, 1, 3, 4, 2]","C",336,336,512,512,101,416,416,0,368,368,1,"test",1
"330",0,1,NA,NA,NA,NA,NA,NA,"pen",NA,336,438,438,"[2, 3]",NA,"[2, 4, 3, 1, 2, 3, 4, 1]","random",NA,NA,NA,NA,101,NA,NA,0,NA,336,2,"test",2
"331",1,1,288,288,320,320,320,320,"pen",NA,2320,286,286,"[1, 4, 2, 3, 1, 3, 4, 2]",NA,"[1, 4, 2, 3, 1, 3, 4, 2]","C",352,352,464,464,101,272,272,0,304,304,2,"test",2
"332",1,1,240,239,256,256,256,256,"pen",NA,2064,278,278,"[1, 4, 2, 3, 1, 3, 4, 2]",NA,"[1, 4, 2, 3, 1, 3, 4, 2]","C",304,304,496,496,101,256,256,0,256,256,3,"test",3
"333",1,1,416,416,368,368,320,320,"pen",NA,2192,230,230,"[4, 3, 1, 4, 2, 3, 1, 2]",NA,"[4, 3, 1, 4, 2, 3, 1, 2]","A",304,304,336,336,101,240,240,0,208,208,3,"test",3
"334",1,1,336,336,416,416,320,320,"pen",NA,2592,438,438,"[1, 2, 3, 4, 1, 2, 4, 3]",NA,"[1, 2, 3, 4, 1, 2, 4, 3]","random",368,367,400,400,101,352,352,0,400,400,3,"test",3
"335",1,1,352,352,368,368,400,400,"pen",NA,2560,534,534,"[3, 2, 4, 1, 2, 4, 3, 1]",NA,"[3, 2, 4, 1, 2, 4, 3, 1]","B",336,336,352,352,101,352,352,0,400,400,2,"test",2
"336",1,1,352,351,336,336,320,320,"pen",NA,2512,390,390,"[4, 2, 3, 1, 4, 3, 1, 2]",NA,"[4, 2, 3, 1, 4, 3, 1, 2]","random",288,288,384,384,101,336,336,0,496,496,4,"test",4
"337",1,1,288,288,304,304,352,352,"pen",NA,2368,470,470,"[3, 2, 4, 1, 2, 4, 3, 1]",NA,"[3, 2, 4, 1, 2, 4, 3, 1]","B",336,336,368,368,101,336,336,0,384,384,3,"test",3
"338",1,1,320,320,512,511,352,352,"pen",NA,2784,438,438,"[3, 4, 1, 2, 3, 1, 2, 4]",NA,"[3, 4, 1, 2, 3, 1, 2, 4]","random",384,384,512,512,101,368,368,0,336,336,5,"test",5
"339",1,1,288,288,368,368,288,288,"pen",NA,2384,454,454,"[3, 2, 4, 1, 2, 4, 3, 1]",NA,"[3, 2, 4, 1, 2, 4, 3, 1]","B",352,352,368,368,101,320,320,0,400,400,4,"test",4
"340",1,1,352,352,416,415,336,336,"pen",NA,2432,246,246,"[3, 2, 4, 1, 2, 4, 3, 1]",NA,"[3, 2, 4, 1, 2, 4, 3, 1]","B",336,335,336,336,101,320,320,0,336,336,5,"test",5
"341",0,1,NA,NA,224,224,208,208,"pen",NA,1200,310,310,"[1, 4, 2, 3, 1, 4]",NA,"[1, 4, 2, 3, 1, 3, 4, 2]","C",NA,NA,NA,288,101,240,240,0,240,240,4,"test",4
"342",1,1,352,352,400,400,368,367,"pen",NA,2624,507,507,"[3, 2, 4, 1, 2, 4, 3, 1]",NA,"[3, 2, 4, 1, 2, 4, 3, 1]","B",368,368,368,368,101,368,368,0,400,400,6,"test",6
"343",1,1,352,352,400,400,400,400,"pen",NA,2736,406,406,"[4, 3, 1, 4, 2, 3, 1, 2]",NA,"[4, 3, 1, 4, 2, 3, 1, 2]","A",384,384,368,367,101,416,416,0,416,416,4,"test",4
"344",1,1,272,272,384,384,336,336,"pen",NA,2208,342,342,"[1, 4, 2, 3, 1, 3, 4, 2]",NA,"[1, 4, 2, 3, 1, 3, 4, 2]","C",352,352,448,448,101,352,352,0,64,64,5,"test",5
"345",1,1,272,272,464,464,224,224,"pen",NA,1952,262,262,"[1, 4, 2, 3, 1, 3, 4, 2]",NA,"[1, 4, 2, 3, 1, 3, 4, 2]","C",272,272,512,511,101,144,144,0,64,64,6,"test",6
"346",1,1,320,320,432,432,352,352,"pen",NA,2704,566,566,"[2, 1, 4, 3, 4, 2, 3, 1]",NA,"[2, 1, 4, 3, 4, 2, 3, 1]","random",384,384,464,464,101,352,352,0,400,400,6,"test",6
"347",1,1,336,336,336,336,416,416,"pen",NA,2416,405,405,"[4, 3, 1, 4, 2, 3, 1, 2]",NA,"[4, 3, 1, 4, 2, 3, 1, 2]","A",416,416,400,400,101,256,256,0,256,256,5,"test",5
"348",1,1,352,352,384,384,400,400,"pen",NA,2192,278,278,"[4, 3, 1, 4, 2, 3, 1, 2]",NA,"[4, 3, 1, 4, 2, 3, 1, 2]","A",256,256,336,336,101,256,256,0,208,208,6,"test",6
"349",1,1,384,384,368,368,352,352,"pen",NA,2592,436,436,"[4, 3, 1, 4, 2, 3, 1, 2]",NA,"[4, 3, 1, 4, 2, 3, 1, 2]","A",304,304,400,400,101,400,400,0,384,383,7,"test",7
"350",1,1,352,352,368,368,272,272,"pen",NA,2416,374,374,"[2, 3, 4, 1, 4, 2, 1, 3]",NA,"[2, 3, 4, 1, 4, 2, 1, 3]","random",368,368,352,352,101,304,304,0,400,399,7,"test",7
"351",1,1,304,304,304,304,368,368,"pen",NA,2016,262,262,"[4, 3, 1, 4, 2, 3, 1, 2]",NA,"[4, 3, 1, 4, 2, 3, 1, 2]","A",368,368,320,320,101,288,288,0,64,64,8,"test",8
"352",1,1,288,288,320,320,192,192,"pen",NA,1824,246,246,"[3, 2, 4, 1, 2, 4, 3, 1]",NA,"[3, 2, 4, 1, 2, 4, 3, 1]","B",352,352,336,336,101,224,224,0,112,112,7,"test",7
"353",1,1,208,208,224,223,272,272,"pen",NA,1744,262,262,"[1, 4, 2, 3, 1, 3, 4, 2]",NA,"[1, 4, 2, 3, 1, 3, 4, 2]","C",304,303,432,432,101,144,144,0,160,160,7,"test",7
"354",0,1,NA,NA,496,496,288,288,"pen",NA,1568,534,534,"[1, 4, 2, 3, 1, 4]",NA,"[1, 4, 2, 3, 1, 3, 4, 2]","C",NA,NA,NA,256,101,256,256,0,272,272,8,"test",8
"355",1,1,272,272,240,240,256,256,"pen",NA,1824,305,305,"[1, 4, 2, 3, 1, 3, 4, 2]",NA,"[1, 4, 2, 3, 1, 3, 4, 2]","C",336,336,336,336,101,224,224,0,160,160,9,"test",9
"356",1,1,464,464,496,496,512,512,"pen",NA,3504,502,502,"[4, 3, 2, 1, 3, 2, 4, 1]",NA,"[4, 3, 2, 1, 3, 2, 4, 1]","random",448,448,496,496,101,512,512,0,576,576,8,"test",8
"357",1,1,352,351,368,368,368,367,"pen",NA,2576,69,69,"[3, 2, 4, 1, 2, 4, 3, 1]",NA,"[3, 2, 4, 1, 2, 4, 3, 1]","B",368,368,368,368,101,352,352,0,400,399,8,"test",8
"358",1,1,336,336,352,352,336,336,"pen",NA,2752,278,278,"[1, 4, 2, 3, 1, 3, 4, 2]",NA,"[1, 4, 2, 3, 1, 3, 4, 2]","C",528,528,448,447,101,416,415,0,336,336,10,"test",10
"359",1,1,352,352,368,368,320,320,"pen",NA,2544,581,581,"[1, 2, 4, 3, 1, 2, 3, 4]",NA,"[1, 2, 4, 3, 1, 2, 3, 4]","random",336,336,400,400,101,352,352,0,416,415,9,"test",9
"360",1,1,304,304,368,368,336,336,"pen",NA,2272,453,453,"[3, 2, 4, 1, 2, 4, 3, 1]",NA,"[3, 2, 4, 1, 2, 4, 3, 1]","B",320,320,352,352,101,288,288,0,304,303,9,"test",9
"361",1,1,384,384,368,368,288,288,"pen",NA,2480,405,405,"[1, 4, 2, 3, 4, 1, 2, 3]",NA,"[1, 4, 2, 3, 4, 1, 2, 3]","random",320,320,384,384,101,368,368,0,368,368,10,"test",10
"362",1,1,320,320,304,304,336,335,"pen",NA,2144,421,421,"[3, 2, 4, 1, 2, 4, 3, 1]",NA,"[3, 2, 4, 1, 2, 4, 3, 1]","B",304,304,288,288,101,272,272,0,320,320,10,"test",10
"363",1,1,352,352,304,304,320,320,"pen",NA,2384,341,341,"[4, 3, 1, 4, 2, 3, 1, 2]",NA,"[4, 3, 1, 4, 2, 3, 1, 2]","A",368,368,336,336,101,320,320,0,384,384,9,"test",9
"364",1,1,384,384,320,320,320,320,"pen",NA,2288,341,341,"[4, 3, 1, 4, 2, 3, 1, 2]",NA,"[4, 3, 1, 4, 2, 3, 1, 2]","A",336,336,272,272,101,368,368,0,288,288,10,"test",10
"365",1,2,256,256,400,400,288,287,"pen",NA,2480,363,363,"[1, 4, 2, 3, 1, 3, 4, 2]",NA,"[1, 4, 2, 3, 1, 3, 4, 2]","C",384,383,496,496,101,368,368,0,288,288,11,"test",11
"366",1,2,304,304,352,352,384,384,"pen",NA,2560,213,213,"[1, 4, 2, 3, 1, 3, 4, 2]",NA,"[1, 4, 2, 3, 1, 3, 4, 2]","C",352,352,496,496,101,368,368,0,304,304,12,"test",12
"367",1,2,288,288,416,416,496,496,"pen",NA,2992,389,389,"[1, 4, 2, 3, 1, 3, 4, 2]",NA,"[1, 4, 2, 3, 1, 3, 4, 2]","C",368,368,448,448,101,480,480,0,496,496,13,"test",13
"368",1,2,304,303,464,463,304,304,"pen",NA,2400,197,197,"[3, 2, 4, 1, 2, 4, 3, 1]",NA,"[3, 2, 4, 1, 2, 4, 3, 1]","B",288,288,416,416,101,320,320,0,304,304,11,"test",11
"369",1,2,320,320,448,448,320,320,"pen",NA,2352,293,293,"[3, 2, 4, 1, 2, 4, 3, 1]",NA,"[3, 2, 4, 1, 2, 4, 3, 1]","B",304,304,384,384,101,304,304,0,272,272,12,"test",12
"370",1,2,384,384,304,304,432,432,"pen",NA,2320,85,85,"[4, 3, 1, 4, 2, 3, 1, 2]",NA,"[4, 3, 1, 4, 2, 3, 1, 2]","A",304,304,368,368,101,240,240,0,288,288,11,"test",11
"371",1,2,320,320,384,384,288,288,"pen",NA,2128,277,277,"[3, 2, 4, 1, 2, 4, 3, 1]",NA,"[3, 2, 4, 1, 2, 4, 3, 1]","B",320,320,336,336,101,272,272,0,208,208,13,"test",13
"372",1,2,320,320,288,288,320,320,"pen",NA,1840,196,196,"[4, 3, 1, 4, 2, 3, 1, 2]",NA,"[4, 3, 1, 4, 2, 3, 1, 2]","A",272,272,256,256,101,320,320,0,64,64,12,"test",12
"373",1,2,208,208,320,320,368,368,"pen",NA,1936,485,485,"[4, 3, 1, 4, 2, 3, 1, 2]",NA,"[4, 3, 1, 4, 2, 3, 1, 2]","A",256,256,288,288,101,240,240,0,256,256,13,"test",13
"374",1,2,304,304,416,416,352,351,"pen",NA,2560,373,373,"[4, 3, 1, 2, 3, 1, 2, 4]",NA,"[4, 3, 1, 2, 3, 1, 2, 4]","random",368,368,480,480,101,352,352,0,288,288,11,"test",11
"375",1,2,144,144,256,256,208,208,"pen",NA,1536,261,261,"[1, 4, 2, 3, 1, 3, 4, 2]",NA,"[1, 4, 2, 3, 1, 3, 4, 2]","C",272,272,368,368,101,160,159,0,128,128,14,"test",14
"376",1,2,192,192,464,464,112,112,"pen",NA,1648,261,261,"[1, 4, 2, 3, 1, 3, 4, 2]",NA,"[1, 4, 2, 3, 1, 3, 4, 2]","C",256,256,304,304,101,176,176,0,144,144,15,"test",15
"377",1,2,384,384,464,464,368,368,"pen",NA,2720,341,341,"[4, 3, 1, 2, 3, 2, 1, 4]",NA,"[4, 3, 1, 2, 3, 2, 1, 4]","random",336,336,448,448,101,336,336,0,384,384,12,"test",12
"378",1,2,368,368,288,288,400,400,"pen",NA,2176,293,293,"[4, 3, 1, 4, 2, 3, 1, 2]",NA,"[4, 3, 1, 4, 2, 3, 1, 2]","A",288,288,336,336,101,256,256,0,240,240,14,"test",14
"379",0,2,NA,NA,240,240,160,160,"pen",NA,1184,229,229,"[3, 2, 4, 1, 2, 3]",NA,"[3, 2, 4, 1, 2, 4, 3, 1]","B",NA,NA,NA,400,101,224,224,0,160,159,14,"test",14
"380",1,2,320,320,432,431,400,400,"pen",NA,2912,646,646,"[4, 3, 1, 4, 2, 3, 1, 2]",NA,"[4, 3, 1, 4, 2, 3, 1, 2]","A",368,368,384,384,101,496,495,0,512,512,15,"test",15
"381",1,2,352,352,384,384,400,400,"pen",NA,2496,437,437,"[4, 3, 1, 4, 2, 3, 1, 2]",NA,"[4, 3, 1, 4, 2, 3, 1, 2]","A",320,320,320,320,101,352,352,0,368,368,16,"test",16
"382",1,2,256,256,368,368,336,335,"pen",NA,2384,309,309,"[1, 4, 2, 3, 1, 3, 4, 2]",NA,"[1, 4, 2, 3, 1, 3, 4, 2]","C",320,320,512,512,101,288,288,0,304,304,16,"test",16
"383",1,2,320,320,400,400,352,352,"pen",NA,2608,469,469,"[3, 1, 4, 2, 1, 2, 4, 3]",NA,"[3, 1, 4, 2, 1, 2, 4, 3]","random",368,368,384,384,101,352,352,0,432,432,13,"test",13
"384",1,2,352,352,448,448,368,368,"pen",NA,2672,389,389,"[2, 3, 1, 4, 3, 1, 2, 4]",NA,"[2, 3, 1, 4, 3, 1, 2, 4]","random",352,352,400,400,101,400,400,0,352,352,14,"test",14
"385",1,2,528,528,448,448,336,336,"pen",NA,2656,373,373,"[4, 3, 1, 4, 2, 3, 1, 2]",NA,"[4, 3, 1, 4, 2, 3, 1, 2]","A",336,336,336,335,101,304,304,0,368,368,17,"test",17
"386",1,2,320,320,320,320,432,432,"pen",NA,2608,388,388,"[4, 3, 1, 4, 2, 3, 1, 2]",NA,"[4, 3, 1, 4, 2, 3, 1, 2]","A",352,352,432,432,101,400,400,0,352,352,18,"test",18
"387",1,2,304,304,336,336,336,336,"pen",NA,2288,117,117,"[3, 2, 4, 1, 2, 4, 3, 1]",NA,"[3, 2, 4, 1, 2, 4, 3, 1]","B",368,368,352,352,101,336,336,0,256,256,15,"test",15
"388",1,2,272,272,352,352,320,320,"pen",NA,2256,135,135,"[3, 2, 4, 1, 2, 4, 3, 1]",NA,"[3, 2, 4, 1, 2, 4, 3, 1]","B",352,352,432,432,101,288,288,0,240,240,16,"test",16
"389",1,2,272,272,352,352,384,384,"pen",NA,2448,245,245,"[1, 4, 2, 3, 1, 3, 4, 2]",NA,"[1, 4, 2, 3, 1, 3, 4, 2]","C",320,320,480,480,101,288,288,0,352,352,17,"test",17
"390",1,2,288,288,352,352,320,320,"pen",NA,2368,196,196,"[1, 4, 2, 3, 1, 3, 4, 2]",NA,"[1, 4, 2, 3, 1, 3, 4, 2]","C",336,335,464,464,101,288,287,0,320,320,18,"test",18
"391",1,2,368,368,352,352,336,335,"pen",NA,2240,405,405,"[3, 2, 4, 1, 2, 4, 3, 1]",NA,"[3, 2, 4, 1, 2, 4, 3, 1]","B",288,288,352,352,101,288,288,0,256,256,17,"test",17
"392",1,2,416,416,352,352,352,352,"pen",NA,2640,356,356,"[4, 3, 1, 4, 2, 3, 1, 2]",NA,"[4, 3, 1, 4, 2, 3, 1, 2]","A",336,336,576,576,101,320,319,0,288,288,19,"test",19
"393",1,2,320,320,336,336,336,336,"pen",NA,2480,341,341,"[1, 3, 2, 4, 2, 1, 4, 3]",NA,"[1, 3, 2, 4, 2, 1, 4, 3]","random",368,368,352,352,101,384,384,0,384,384,15,"test",15
"394",1,2,352,352,336,336,432,432,"pen",NA,2320,213,213,"[4, 3, 1, 4, 2, 3, 1, 2]",NA,"[4, 3, 1, 4, 2, 3, 1, 2]","A",288,288,320,320,101,320,320,0,272,272,20,"test",20
"395",0,2,NA,NA,NA,NA,NA,64,"pen",NA,928,340,340,"[4, 1, 3, 3]",NA,"[4, 1, 3, 2, 4, 3, 1, 2]","random",NA,NA,NA,NA,101,448,448,0,416,416,16,"test",16
"396",1,2,400,400,384,384,320,319,"pen",NA,2688,344,344,"[4, 2, 3, 1, 2, 3, 1, 4]",NA,"[4, 2, 3, 1, 2, 3, 1, 4]","random",448,448,384,383,101,304,304,0,448,448,17,"test",17
"397",1,2,400,400,288,288,352,352,"pen",NA,2560,484,484,"[1, 4, 2, 3, 1, 3, 2, 4]",NA,"[1, 4, 2, 3, 1, 3, 2, 4]","random",336,336,432,432,101,368,368,0,384,384,18,"test",18
"398",1,2,288,288,304,304,336,336,"pen",NA,2176,260,260,"[1, 4, 2, 3, 1, 3, 4, 2]",NA,"[1, 4, 2, 3, 1, 3, 4, 2]","C",336,336,368,368,101,272,272,0,272,271,19,"test",19
"399",1,2,320,320,432,432,400,400,"pen",NA,2704,340,340,"[3, 1, 4, 2, 1, 2, 4, 3]",NA,"[3, 1, 4, 2, 1, 2, 4, 3]","random",336,336,464,464,101,368,368,0,384,384,19,"test",19
"400",1,2,321,321,512,512,272,272,"pen",NA,2401,532,532,"[1, 4, 2, 3, 1, 3, 4, 2]",NA,"[1, 4, 2, 3, 1, 3, 4, 2]","C",304,304,368,368,101,288,288,0,336,336,20,"test",20
"401",1,2,384,384,320,320,320,319,"pen",NA,2240,179,179,"[3, 2, 4, 1, 2, 4, 3, 1]",NA,"[3, 2, 4, 1, 2, 4, 3, 1]","B",496,496,384,383,101,240,240,0,96,96,18,"test",18
"402",1,2,304,304,320,320,176,176,"pen",NA,1872,260,260,"[3, 2, 4, 1, 2, 4, 3, 1]",NA,"[3, 2, 4, 1, 2, 4, 3, 1]","B",352,352,400,400,101,224,224,0,96,96,19,"test",19
"403",1,2,384,384,496,496,384,384,"pen",NA,2896,484,484,"[3, 2, 4, 1, 2, 4, 3, 1]",NA,"[3, 2, 4, 1, 2, 4, 3, 1]","B",400,400,464,464,101,352,352,0,416,415,20,"test",20
"404",1,2,352,352,512,512,384,384,"pen",NA,2800,356,356,"[4, 1, 2, 3, 1, 2, 3, 4]",NA,"[4, 1, 2, 3, 1, 2, 3, 4]","random",368,368,416,416,101,384,384,0,384,384,20,"test",20
"405",1,3,336,336,320,320,192,192,"pen",NA,2064,235,235,"[3, 2, 4, 1, 2, 4, 3, 1]",NA,"[3, 2, 4, 1, 2, 4, 3, 1]","B",512,512,400,400,101,208,208,0,96,96,21,"test",21
"406",1,3,416,416,400,400,272,272,"pen",NA,2256,708,708,"[3, 2, 4, 1, 2, 4, 3, 1]",NA,"[3, 2, 4, 1, 2, 4, 3, 1]","B",384,384,320,320,101,288,288,0,176,176,22,"test",22
"407",1,3,304,304,336,336,384,384,"pen",NA,2736,356,356,"[1, 4, 3, 2, 1, 4, 2, 3]",NA,"[1, 4, 3, 2, 1, 4, 2, 3]","random",560,560,336,336,101,464,464,0,352,352,21,"test",21
"408",1,3,304,304,464,464,480,479,"pen",NA,2688,452,452,"[1, 4, 3, 2, 3, 4, 1, 2]",NA,"[1, 4, 3, 2, 3, 4, 1, 2]","random",320,320,336,335,101,416,416,0,368,368,22,"test",22
"409",1,3,624,624,576,575,400,400,"pen",NA,4368,340,340,"[4, 3, 1, 4, 2, 3, 1, 2]",NA,"[4, 3, 1, 4, 2, 3, 1, 2]","A",128,128,736,736,101,1760,1760,0,144,144,21,"test",21
"410",1,3,240,239,384,384,240,240,"pen",NA,2208,404,404,"[1, 4, 2, 3, 1, 3, 4, 2]",NA,"[1, 4, 2, 3, 1, 3, 4, 2]","C",272,272,384,384,101,320,320,0,368,368,21,"test",21
"411",1,3,208,208,256,256,256,256,"pen",NA,1760,308,308,"[1, 4, 2, 3, 1, 3, 4, 2]",NA,"[1, 4, 2, 3, 1, 3, 4, 2]","C",240,240,336,336,101,256,256,0,208,208,22,"test",22
"412",1,3,304,304,432,432,256,256,"pen",NA,1872,292,292,"[3, 2, 4, 1, 2, 4, 3, 1]",NA,"[3, 2, 4, 1, 2, 4, 3, 1]","B",288,288,336,336,101,208,208,0,48,48,23,"test",23
"413",1,3,320,320,432,432,336,336,"pen",NA,2704,468,468,"[1, 3, 2, 4, 1, 2, 3, 4]",NA,"[1, 3, 2, 4, 1, 2, 3, 4]","random",336,336,448,448,101,384,384,0,448,448,23,"test",23
"414",1,3,208,208,240,240,256,256,"pen",NA,1952,468,468,"[1, 4, 2, 3, 1, 3, 4, 2]",NA,"[1, 4, 2, 3, 1, 3, 4, 2]","C",320,319,368,368,101,272,272,0,288,288,23,"test",23
"415",1,3,336,336,336,336,288,288,"pen",NA,2256,308,308,"[3, 2, 4, 1, 2, 4, 3, 1]",NA,"[3, 2, 4, 1, 2, 4, 3, 1]","B",304,304,384,384,101,256,256,0,352,352,24,"test",24
"416",1,3,400,400,288,288,368,368,"pen",NA,2256,308,308,"[4, 3, 1, 4, 2, 3, 1, 2]",NA,"[4, 3, 1, 4, 2, 3, 1, 2]","A",272,272,384,384,101,288,288,0,256,256,22,"test",22
"417",1,3,352,352,272,272,384,384,"pen",NA,2112,212,212,"[4, 3, 1, 4, 2, 3, 1, 2]",NA,"[4, 3, 1, 4, 2, 3, 1, 2]","A",272,272,304,304,101,240,240,0,288,287,23,"test",23
"418",1,3,240,240,256,256,272,272,"pen",NA,2144,276,276,"[1, 4, 2, 3, 1, 3, 4, 2]",NA,"[1, 4, 2, 3, 1, 3, 4, 2]","C",272,272,576,576,101,240,240,0,288,288,24,"test",24
"419",1,3,256,256,368,368,320,320,"pen",NA,2192,420,420,"[3, 2, 4, 1, 2, 4, 3, 1]",NA,"[3, 2, 4, 1, 2, 4, 3, 1]","B",304,304,400,400,101,288,288,0,256,256,25,"test",25
"420",1,3,336,336,384,384,368,368,"pen",NA,2608,356,356,"[3, 4, 2, 1, 3, 4, 2, 1]",NA,"[3, 4, 2, 1, 3, 4, 2, 1]","random",288,288,288,288,101,560,560,0,384,384,24,"test",24
"421",1,3,224,224,256,255,224,224,"pen",NA,1744,212,212,"[1, 4, 2, 3, 1, 3, 4, 2]",NA,"[1, 4, 2, 3, 1, 3, 4, 2]","C",240,240,352,352,101,240,240,0,208,208,25,"test",25
"422",1,3,368,368,272,272,336,336,"pen",NA,2000,36,36,"[4, 3, 1, 4, 2, 3, 1, 2]",NA,"[4, 3, 1, 4, 2, 3, 1, 2]","A",256,256,272,272,101,256,256,0,240,239,24,"test",24
"423",1,3,368,368,464,464,288,288,"pen",NA,2560,164,164,"[3, 2, 4, 1, 2, 4, 3, 1]",NA,"[3, 2, 4, 1, 2, 4, 3, 1]","B",480,480,480,480,101,256,256,0,224,224,26,"test",26
"424",1,3,320,320,320,320,304,304,"pen",NA,2032,356,356,"[3, 2, 4, 1, 2, 4, 3, 1]",NA,"[3, 2, 4, 1, 2, 4, 3, 1]","B",288,288,336,336,101,256,256,0,208,208,27,"test",27
"425",1,3,448,448,352,352,320,320,"pen",NA,2720,404,404,"[1, 2, 3, 4, 2, 4, 1, 3]",NA,"[1, 2, 3, 4, 2, 4, 1, 3]","random",416,416,416,416,101,320,320,0,448,448,25,"test",25
"426",1,3,352,352,336,336,336,336,"pen",NA,2672,388,388,"[3, 1, 2, 4, 3, 2, 1, 4]",NA,"[3, 1, 2, 4, 3, 2, 1, 4]","random",352,352,368,368,101,448,448,0,480,480,26,"test",26
"427",1,3,208,208,272,272,272,272,"pen",NA,2080,52,52,"[1, 4, 2, 3, 1, 3, 4, 2]",NA,"[1, 4, 2, 3, 1, 3, 4, 2]","C",272,272,480,480,101,272,272,0,304,304,26,"test",26
"428",1,3,400,400,352,352,336,336,"pen",NA,2352,388,388,"[3, 2, 4, 1, 2, 4, 3, 1]",NA,"[3, 2, 4, 1, 2, 4, 3, 1]","B",320,320,320,320,101,288,287,0,336,336,28,"test",28
"429",1,3,288,288,368,368,304,304,"pen",NA,2592,372,372,"[3, 1, 4, 2, 1, 3, 2, 4]",NA,"[3, 1, 4, 2, 1, 3, 2, 4]","random",448,448,448,448,101,288,288,0,448,448,27,"test",27
"430",1,3,416,416,304,304,368,368,"pen",NA,2272,259,259,"[4, 3, 1, 4, 2, 3, 1, 2]",NA,"[4, 3, 1, 4, 2, 3, 1, 2]","A",288,288,352,352,101,272,272,0,272,272,25,"test",25
"431",1,3,352,352,304,304,336,336,"pen",NA,2208,276,276,"[4, 3, 1, 4, 2, 3, 1, 2]",NA,"[4, 3, 1, 4, 2, 3, 1, 2]","A",304,304,352,352,101,304,304,0,256,256,26,"test",26
"432",1,3,400,399,336,336,320,320,"pen",NA,2400,388,388,"[2, 4, 1, 3, 4, 2, 1, 3]",NA,"[2, 4, 1, 3, 4, 2, 1, 3]","random",320,320,304,304,101,352,352,0,368,368,28,"test",28
"433",1,3,192,192,256,256,272,272,"pen",NA,2048,196,196,"[1, 4, 2, 3, 1, 3, 4, 2]",NA,"[1, 4, 2, 3, 1, 3, 4, 2]","C",304,304,480,480,101,272,271,0,272,272,27,"test",27
"434",1,3,256,256,320,320,352,352,"pen",NA,2544,467,467,"[1, 2, 4, 3, 1, 4, 2, 3]",NA,"[1, 2, 4, 3, 1, 4, 2, 3]","random",336,336,400,400,101,432,432,0,448,447,29,"test",29
"435",1,3,272,272,304,304,192,192,"pen",NA,1744,244,244,"[3, 2, 4, 1, 2, 4, 3, 1]",NA,"[3, 2, 4, 1, 2, 4, 3, 1]","B",400,400,256,256,101,192,192,0,128,128,29,"test",29
"436",1,3,336,336,240,240,352,352,"pen",NA,1776,276,276,"[4, 3, 1, 4, 2, 3, 1, 2]",NA,"[4, 3, 1, 4, 2, 3, 1, 2]","A",256,256,256,256,101,240,240,0,96,96,27,"test",27
"437",0,3,NA,NA,NA,NA,NA,256,"pen",NA,720,52,52,"[4, 3, 1, 2]",NA,"[4, 3, 1, 4, 2, 3, 1, 2]","A",NA,NA,NA,NA,101,224,224,0,240,240,28,"test",28
"438",1,3,400,400,272,272,288,288,"pen",NA,1952,276,276,"[4, 3, 1, 4, 2, 3, 1, 2]",NA,"[4, 3, 1, 4, 2, 3, 1, 2]","A",336,336,256,256,101,208,208,0,192,192,29,"test",29
"439",1,3,416,416,256,256,240,240,"pen",NA,1776,292,292,"[4, 3, 1, 4, 2, 3, 1, 2]",NA,"[4, 3, 1, 4, 2, 3, 1, 2]","A",256,256,272,272,101,224,224,0,112,112,30,"test",30
"440",0,3,NA,NA,256,256,224,224,"pen",NA,1120,419,419,"[1, 4, 2, 3, 1, 4]",NA,"[1, 4, 2, 3, 1, 3, 4, 2]","C",NA,NA,NA,256,101,224,224,0,160,160,28,"test",28
"441",1,3,352,352,368,368,320,320,"pen",NA,2368,389,389,"[3, 2, 4, 1, 2, 4, 3, 1]",NA,"[3, 2, 4, 1, 2, 4, 3, 1]","B",352,352,416,416,101,320,320,0,240,240,30,"test",30
"442",1,3,368,368,352,352,400,400,"pen",NA,2656,436,436,"[1, 3, 4, 2, 3, 1, 2, 4]",NA,"[1, 3, 4, 2, 3, 1, 2, 4]","random",352,352,384,384,101,432,432,0,368,368,30,"test",30
"443",1,3,288,288,336,336,288,288,"pen",NA,2208,215,215,"[1, 4, 2, 3, 1, 3, 4, 2]",NA,"[1, 4, 2, 3, 1, 3, 4, 2]","C",304,304,368,368,101,320,320,0,304,304,29,"test",29
"444",1,3,176,176,272,271,272,272,"pen",NA,2048,51,51,"[1, 4, 2, 3, 1, 3, 4, 2]",NA,"[1, 4, 2, 3, 1, 3, 4, 2]","C",240,240,448,448,101,272,272,0,368,368,30,"test",30
"445",1,1,496,495,480,479,464,463,"pen",NA,3424,2283,2283,"[3, 4, 1, 2, 3, 1, 2, 4]",NA,"[3, 4, 1, 2, 3, 1, 2, 4]","random",464,463,560,559,101,464,463,0,496,495,1,"training",1
"446",1,1,512,511,416,415,432,431,"pen",NA,3216,832,832,"[3, 1, 2, 4, 2, 3, 4, 1]",NA,"[3, 1, 2, 4, 2, 3, 4, 1]","random",432,431,480,479,101,480,479,0,464,463,2,"training",2
"447",0,1,NA,NA,NA,NA,NA,495,"pen",NA,1424,598,598,"[1, 2, 4, 4]",NA,"[1, 2, 4, 3, 1, 3, 2, 4]","random",NA,NA,NA,NA,101,464,463,0,464,463,3,"training",3
"448",1,1,560,559,496,495,480,479,"pen",NA,3472,478,478,"[4, 2, 3, 1, 2, 4, 1, 3]",NA,"[4, 2, 3, 1, 2, 4, 1, 3]","random",480,479,480,479,101,480,479,0,496,495,4,"training",4
"449",1,1,528,527,528,527,544,543,"pen",NA,3632,422,422,"[1, 2, 4, 3, 1, 2, 4, 3]",NA,"[1, 2, 4, 3, 1, 2, 4, 3]","random",512,511,512,511,101,544,543,0,464,463,5,"training",5
"450",1,1,496,495,448,447,464,463,"pen",NA,3504,438,438,"[3, 4, 1, 2, 4, 3, 1, 2]",NA,"[3, 4, 1, 2, 4, 3, 1, 2]","random",528,527,592,591,101,496,495,0,480,479,6,"training",6
"451",1,1,480,479,448,447,464,463,"pen",NA,3312,550,550,"[2, 3, 1, 4, 2, 1, 3, 4]",NA,"[2, 3, 1, 4, 2, 1, 3, 4]","random",496,495,464,463,101,464,463,0,496,495,7,"training",7
"452",1,1,432,431,528,527,464,463,"pen",NA,3344,469,469,"[4, 2, 3, 1, 4, 3, 2, 1]",NA,"[4, 2, 3, 1, 4, 3, 2, 1]","random",432,431,544,543,101,464,463,0,480,479,8,"training",8
"453",1,1,448,447,608,607,496,495,"pen",NA,3456,438,438,"[2, 3, 4, 1, 3, 2, 1, 4]",NA,"[2, 3, 4, 1, 3, 2, 1, 4]","random",544,543,448,447,101,464,463,0,448,447,9,"training",9
"454",1,1,400,399,464,463,480,479,"pen",NA,3360,551,551,"[3, 2, 1, 4, 1, 4, 3, 2]",NA,"[3, 2, 1, 4, 1, 4, 3, 2]","random",576,575,496,495,101,464,463,0,480,479,10,"training",10
"455",1,1,464,464,560,559,496,495,"pen",NA,3360,342,342,"[2, 3, 1, 4, 3, 2, 4, 1]",NA,"[2, 3, 1, 4, 3, 2, 4, 1]","random",464,463,416,415,101,464,463,0,496,495,11,"training",11
"456",1,1,544,543,448,447,432,431,"pen",NA,3296,406,406,"[1, 2, 3, 4, 2, 4, 1, 3]",NA,"[1, 2, 3, 4, 2, 4, 1, 3]","random",496,495,448,447,101,464,463,0,464,463,12,"training",12
"457",1,1,368,367,464,463,416,415,"pen",NA,2992,422,422,"[1, 3, 2, 4, 1, 2, 3, 4]",NA,"[1, 3, 2, 4, 1, 2, 3, 4]","random",384,383,496,495,101,368,367,0,496,495,13,"training",13
"458",1,1,496,495,432,431,432,431,"pen",NA,3264,566,566,"[2, 4, 3, 1, 4, 3, 1, 2]",NA,"[2, 4, 3, 1, 4, 3, 1, 2]","random",432,431,528,527,101,480,479,0,464,463,14,"training",14
"459",1,1,448,447,528,527,480,479,"pen",NA,3360,438,438,"[4, 2, 1, 3, 4, 2, 1, 3]",NA,"[4, 2, 1, 3, 4, 2, 1, 3]","random",480,479,432,431,101,496,495,0,496,495,15,"training",15
"460",1,1,512,511,448,447,384,383,"pen",NA,3104,438,438,"[4, 2, 3, 1, 2, 4, 1, 3]",NA,"[4, 2, 3, 1, 2, 4, 1, 3]","random",464,463,400,399,101,432,431,0,464,463,16,"training",16
"461",1,1,416,415,480,479,416,415,"pen",NA,3024,390,390,"[3, 1, 4, 2, 1, 3, 2, 4]",NA,"[3, 1, 4, 2, 1, 3, 2, 4]","random",400,399,448,447,101,400,399,0,464,463,17,"training",17
"462",1,1,368,367,448,447,416,415,"pen",NA,3136,406,406,"[1, 3, 4, 2, 4, 1, 2, 3]",NA,"[1, 3, 4, 2, 4, 1, 2, 3]","random",528,527,448,447,101,480,479,0,448,447,18,"training",18
"463",1,1,576,575,416,415,416,415,"pen",NA,3136,421,421,"[1, 2, 3, 4, 2, 1, 4, 3]",NA,"[1, 2, 3, 4, 2, 1, 4, 3]","random",448,447,464,463,101,400,399,0,416,415,19,"training",19
"464",1,1,416,415,432,431,464,463,"pen",NA,3120,630,630,"[3, 1, 2, 4, 2, 4, 3, 1]",NA,"[3, 1, 2, 4, 2, 4, 3, 1]","random",544,543,416,415,101,464,463,0,384,383,20,"training",20
"465",1,1,416,415,480,479,400,399,"pen",NA,3136,630,630,"[3, 2, 1, 4, 1, 2, 4, 3]",NA,"[3, 2, 1, 4, 1, 2, 4, 3]","random",512,511,464,463,101,416,415,0,448,447,21,"training",21
"466",1,1,464,463,496,495,432,431,"pen",NA,3104,438,438,"[4, 2, 3, 1, 2, 3, 4, 1]",NA,"[4, 2, 3, 1, 2, 3, 4, 1]","random",400,399,416,415,101,432,431,0,464,463,22,"training",22
"467",1,1,368,367,432,431,432,431,"pen",NA,3008,437,437,"[1, 3, 4, 2, 4, 3, 2, 1]",NA,"[1, 3, 4, 2, 4, 3, 2, 1]","random",368,367,512,511,101,464,463,0,432,431,23,"training",23
"468",1,1,336,335,400,399,432,431,"pen",NA,3056,389,389,"[1, 4, 2, 3, 1, 4, 3, 2]",NA,"[1, 4, 2, 3, 1, 4, 3, 2]","random",528,527,464,463,101,448,447,0,448,447,24,"training",24
"469",1,1,352,351,400,399,448,447,"pen",NA,2992,389,389,"[4, 1, 3, 2, 4, 1, 3, 2]",NA,"[4, 1, 3, 2, 4, 1, 3, 2]","random",496,495,432,431,101,448,447,0,416,415,25,"training",25
"470",1,1,432,431,480,479,464,463,"pen",NA,3280,437,437,"[3, 4, 2, 1, 2, 4, 1, 3]",NA,"[3, 4, 2, 1, 2, 4, 1, 3]","random",512,511,464,463,101,480,479,0,448,447,26,"training",26
"471",1,1,416,415,512,511,464,463,"pen",NA,3264,485,485,"[3, 4, 1, 2, 1, 2, 3, 4]",NA,"[3, 4, 1, 2, 1, 2, 3, 4]","random",576,575,432,431,101,448,447,0,416,415,27,"training",27
"472",1,1,432,431,496,495,384,383,"pen",NA,3008,470,470,"[1, 2, 3, 4, 3, 4, 2, 1]",NA,"[1, 2, 3, 4, 3, 4, 2, 1]","random",448,447,432,431,101,368,367,0,448,447,28,"training",28
"473",1,1,368,367,384,383,432,431,"pen",NA,2928,421,421,"[4, 2, 1, 3, 4, 2, 3, 1]",NA,"[4, 2, 1, 3, 4, 2, 3, 1]","random",416,415,480,479,101,448,447,0,400,399,29,"training",29
"474",1,1,352,351,592,591,400,399,"pen",NA,3040,437,437,"[2, 3, 4, 1, 3, 2, 4, 1]",NA,"[2, 3, 4, 1, 3, 2, 4, 1]","random",416,415,464,463,101,416,415,0,400,399,30,"training",30
"475",1,1,400,399,384,383,352,351,"pen",NA,2880,437,437,"[4, 1, 2, 3, 4, 3, 2, 1]",NA,"[4, 1, 2, 3, 4, 3, 2, 1]","random",368,367,496,495,101,448,447,0,432,431,31,"training",31
"476",1,1,432,431,416,415,448,447,"pen",NA,3088,405,405,"[3, 1, 4, 2, 1, 2, 4, 3]",NA,"[3, 1, 4, 2, 1, 2, 4, 3]","random",464,463,448,447,101,432,431,0,448,447,32,"training",32
"477",1,1,400,399,384,383,416,415,"pen",NA,2928,453,453,"[2, 3, 1, 4, 2, 1, 3, 4]",NA,"[2, 3, 1, 4, 2, 1, 3, 4]","random",480,479,432,431,101,384,383,0,432,431,33,"training",33
"478",1,1,416,415,416,415,368,367,"pen",NA,2928,485,485,"[3, 4, 2, 1, 4, 3, 1, 2]",NA,"[3, 4, 2, 1, 4, 3, 1, 2]","random",448,447,448,447,101,432,431,0,400,399,34,"training",34
"479",1,1,352,351,448,447,400,399,"pen",NA,2768,421,421,"[2, 4, 1, 3, 1, 4, 2, 3]",NA,"[2, 4, 1, 3, 1, 4, 2, 3]","random",384,383,480,479,101,368,367,0,336,335,35,"training",35
"480",1,1,416,415,464,463,336,335,"pen",NA,3104,421,421,"[1, 2, 3, 4, 3, 4, 2, 1]",NA,"[1, 2, 3, 4, 3, 4, 2, 1]","random",480,479,624,623,101,352,351,0,432,431,36,"training",36
"481",1,1,496,495,496,495,384,383,"pen",NA,3200,453,453,"[4, 2, 1, 3, 2, 4, 1, 3]",NA,"[4, 2, 1, 3, 2, 4, 1, 3]","random",432,431,464,463,101,480,479,0,448,447,37,"training",37
"482",1,1,432,431,400,399,464,463,"pen",NA,3232,421,421,"[4, 2, 1, 3, 1, 3, 4, 2]",NA,"[4, 2, 1, 3, 1, 3, 4, 2]","random",480,479,544,543,101,464,463,0,448,447,38,"training",38
"483",1,1,384,383,512,511,464,463,"pen",NA,3184,501,501,"[3, 1, 2, 4, 1, 4, 2, 3]",NA,"[3, 1, 2, 4, 1, 4, 2, 3]","random",496,495,400,399,101,464,463,0,464,463,39,"training",39
"484",1,1,416,415,416,415,416,415,"pen",NA,3328,453,453,"[4, 2, 1, 3, 1, 3, 2, 4]",NA,"[4, 2, 1, 3, 1, 3, 2, 4]","random",528,527,624,623,101,464,463,0,464,463,40,"training",40
"485",1,2,432,431,400,399,416,415,"pen",NA,3008,443,443,"[3, 1, 4, 2, 3, 2, 1, 4]",NA,"[3, 1, 4, 2, 3, 2, 1, 4]","random",480,479,400,399,101,432,431,0,448,447,41,"training",41
"486",1,2,464,463,352,351,384,383,"pen",NA,2832,485,485,"[1, 4, 2, 3, 2, 4, 1, 3]",NA,"[1, 4, 2, 3, 2, 4, 1, 3]","random",352,351,496,495,101,352,351,0,432,431,42,"training",42
"487",1,2,368,367,400,399,368,367,"pen",NA,3104,485,485,"[1, 4, 3, 2, 4, 1, 2, 3]",NA,"[1, 4, 3, 2, 4, 1, 2, 3]","random",480,479,464,463,101,592,591,0,432,431,43,"training",43
"488",1,2,432,431,432,431,480,479,"pen",NA,3216,389,389,"[2, 4, 3, 1, 3, 1, 2, 4]",NA,"[2, 4, 3, 1, 3, 1, 2, 4]","random",496,495,368,367,101,544,543,0,464,463,44,"training",44
"489",1,2,432,431,464,463,448,447,"pen",NA,3248,565,565,"[3, 4, 2, 1, 2, 4, 1, 3]",NA,"[3, 4, 2, 1, 2, 4, 1, 3]","random",496,495,432,431,101,496,495,0,480,479,45,"training",45
"490",1,2,384,383,352,351,448,447,"pen",NA,2912,485,485,"[2, 4, 3, 1, 3, 1, 4, 2]",NA,"[2, 4, 3, 1, 3, 1, 4, 2]","random",480,479,368,367,101,480,479,0,400,399,46,"training",46
"491",1,2,624,623,448,447,432,431,"pen",NA,3312,373,373,"[2, 3, 4, 1, 2, 1, 4, 3]",NA,"[2, 3, 4, 1, 2, 1, 4, 3]","random",400,399,528,527,101,400,399,0,480,479,47,"training",47
"492",1,2,400,399,560,559,448,447,"pen",NA,3216,645,645,"[4, 1, 3, 2, 3, 2, 1, 4]",NA,"[4, 1, 3, 2, 3, 2, 1, 4]","random",448,447,384,383,101,448,447,0,528,527,48,"training",48
"493",1,2,464,463,416,415,480,479,"pen",NA,3312,453,453,"[1, 3, 4, 2, 3, 1, 4, 2]",NA,"[1, 3, 4, 2, 3, 1, 4, 2]","random",464,463,576,575,101,480,479,0,432,431,49,"training",49
"494",1,2,384,383,400,399,416,415,"pen",NA,2976,405,405,"[1, 3, 4, 2, 1, 4, 3, 2]",NA,"[1, 3, 4, 2, 1, 4, 3, 2]","random",496,495,416,415,101,464,463,0,400,399,50,"training",50
"495",1,2,384,383,464,463,448,447,"pen",NA,3056,853,853,"[3, 1, 4, 2, 1, 3, 4, 2]",NA,"[3, 1, 4, 2, 1, 3, 4, 2]","random",400,399,512,511,101,448,447,0,400,399,51,"training",51
"496",1,2,464,463,448,447,416,415,"pen",NA,3376,437,437,"[2, 1, 3, 4, 2, 4, 3, 1]",NA,"[2, 1, 3, 4, 2, 4, 3, 1]","random",480,479,528,527,101,576,575,0,464,463,52,"training",52
"497",1,2,448,447,432,431,384,383,"pen",NA,3152,357,357,"[2, 3, 1, 4, 2, 4, 3, 1]",NA,"[2, 3, 1, 4, 2, 4, 3, 1]","random",560,559,480,479,101,464,463,0,384,383,53,"training",53
"498",1,2,352,351,384,383,384,383,"pen",NA,2816,453,453,"[1, 3, 4, 2, 1, 2, 3, 4]",NA,"[1, 3, 4, 2, 1, 2, 3, 4]","random",368,367,544,543,101,384,383,0,400,399,54,"training",54
"499",1,2,368,367,432,431,384,383,"pen",NA,2944,405,405,"[3, 2, 1, 4, 1, 2, 4, 3]",NA,"[3, 2, 1, 4, 1, 2, 4, 3]","random",512,511,416,415,101,432,431,0,400,399,55,"training",55
"500",1,2,368,367,368,367,352,351,"pen",NA,2816,549,549,"[3, 1, 4, 2, 1, 3, 2, 4]",NA,"[3, 1, 4, 2, 1, 3, 2, 4]","random",464,463,432,431,101,368,367,0,464,463,56,"training",56
"501",1,2,368,367,480,479,384,383,"pen",NA,3088,581,581,"[3, 4, 1, 2, 1, 2, 3, 4]",NA,"[3, 4, 1, 2, 1, 2, 3, 4]","random",544,543,480,479,101,384,383,0,448,447,57,"training",57
"502",0,2,NA,NA,384,383,368,367,"pen",NA,2096,389,389,"[3, 1, 4, 2, 1, 4]",NA,"[3, 1, 4, 2, 1, 3, 4, 2]","random",NA,NA,NA,527,101,384,383,0,432,431,58,"training",58
"503",1,2,352,351,448,447,416,415,"pen",NA,3024,489,489,"[3, 2, 4, 1, 3, 1, 4, 2]",NA,"[3, 2, 4, 1, 3, 1, 4, 2]","random",512,511,432,431,101,448,447,0,416,415,59,"training",59
"504",1,2,464,463,528,527,432,431,"pen",NA,3392,821,821,"[4, 2, 1, 3, 4, 2, 3, 1]",NA,"[4, 2, 1, 3, 4, 2, 3, 1]","random",592,591,480,479,101,512,511,0,384,383,60,"training",60
"505",1,2,576,575,496,495,480,479,"pen",NA,3632,437,437,"[2, 4, 3, 1, 2, 4, 3, 1]",NA,"[2, 4, 3, 1, 2, 4, 3, 1]","random",576,575,496,495,101,528,527,0,480,479,61,"training",61
"506",1,2,448,447,560,559,512,511,"pen",NA,3600,501,501,"[4, 3, 1, 2, 4, 3, 2, 1]",NA,"[4, 3, 1, 2, 4, 3, 2, 1]","random",464,463,624,623,101,432,431,0,560,559,62,"training",62
"507",1,2,464,463,448,447,480,479,"pen",NA,3072,453,453,"[4, 2, 1, 3, 2, 1, 4, 3]",NA,"[4, 2, 1, 3, 2, 1, 4, 3]","random",432,431,384,383,101,448,447,0,416,415,63,"training",63
"508",1,2,432,431,560,559,448,447,"pen",NA,3504,485,485,"[3, 4, 1, 2, 1, 3, 2, 4]",NA,"[3, 4, 1, 2, 1, 3, 2, 4]","random",592,591,560,559,101,432,431,0,480,479,64,"training",64
"509",1,2,368,367,496,495,496,495,"pen",NA,3280,516,516,"[2, 4, 1, 3, 2, 3, 4, 1]",NA,"[2, 4, 1, 3, 2, 3, 4, 1]","random",528,527,528,527,101,448,447,0,416,415,65,"training",65
"510",1,2,448,447,432,431,432,431,"pen",NA,3152,341,341,"[2, 1, 3, 4, 2, 4, 3, 1]",NA,"[2, 1, 3, 4, 2, 4, 3, 1]","random",496,495,448,447,101,464,463,0,432,431,66,"training",66
"511",1,2,400,399,512,511,336,335,"pen",NA,2976,533,533,"[1, 2, 3, 4, 2, 4, 1, 3]",NA,"[1, 2, 3, 4, 2, 4, 1, 3]","random",464,463,384,383,101,400,399,0,480,479,67,"training",67
"512",1,2,352,351,368,367,368,367,"pen",NA,2928,372,372,"[4, 2, 3, 1, 3, 1, 2, 4]",NA,"[4, 2, 3, 1, 3, 1, 2, 4]","random",512,511,336,335,101,624,623,0,368,367,68,"training",68
"513",1,2,352,351,528,527,416,415,"pen",NA,3024,389,389,"[1, 2, 3, 4, 3, 2, 4, 1]",NA,"[1, 2, 3, 4, 3, 2, 4, 1]","random",528,527,416,415,101,352,351,0,432,431,69,"training",69
"514",1,2,416,415,448,447,432,431,"pen",NA,3184,453,453,"[2, 1, 4, 3, 1, 4, 3, 2]",NA,"[2, 1, 4, 3, 1, 4, 3, 2]","random",496,495,512,511,101,432,431,0,448,447,70,"training",70
"515",1,2,480,479,432,431,448,447,"pen",NA,3120,422,422,"[3, 2, 4, 1, 2, 4, 1, 3]",NA,"[3, 2, 4, 1, 2, 4, 1, 3]","random",544,543,432,431,101,400,399,0,384,383,71,"training",71
"516",1,2,480,479,400,399,384,383,"pen",NA,3088,324,324,"[1, 4, 2, 3, 4, 2, 1, 3]",NA,"[1, 4, 2, 3, 4, 2, 1, 3]","random",400,399,496,495,101,400,399,0,528,527,72,"training",72
"517",1,2,416,415,448,447,480,479,"pen",NA,3280,405,405,"[2, 3, 1, 4, 3, 1, 2, 4]",NA,"[2, 3, 1, 4, 3, 1, 2, 4]","random",544,543,416,415,101,432,431,0,544,543,73,"training",73
"518",1,2,432,431,384,383,432,431,"pen",NA,3104,453,453,"[4, 1, 2, 3, 4, 2, 1, 3]",NA,"[4, 1, 2, 3, 4, 2, 1, 3]","random",496,495,464,463,101,480,479,0,416,415,74,"training",74
"519",0,2,NA,NA,NA,NA,NA,111,"pen",NA,1008,436,436,"[4, 2, 3, 3]",NA,"[4, 2, 3, 1, 3, 1, 2, 4]","random",NA,NA,NA,NA,101,496,495,0,400,399,75,"training",75
"520",1,2,464,463,480,479,384,383,"pen",NA,3184,457,457,"[3, 1, 4, 2, 3, 4, 1, 2]",NA,"[3, 1, 4, 2, 3, 4, 1, 2]","random",400,399,608,607,101,400,399,0,448,447,76,"training",76
"521",1,2,416,415,480,479,416,415,"pen",NA,3120,468,468,"[1, 2, 4, 3, 4, 1, 2, 3]",NA,"[1, 2, 4, 3, 4, 1, 2, 3]","random",464,463,448,447,101,480,479,0,416,415,77,"training",77
"522",1,2,432,431,640,639,448,447,"pen",NA,3312,452,452,"[1, 3, 4, 2, 3, 4, 1, 2]",NA,"[1, 3, 4, 2, 3, 4, 1, 2]","random",384,383,480,479,101,448,447,0,480,479,78,"training",78
"523",1,2,368,367,416,415,416,415,"pen",NA,3040,436,436,"[2, 3, 4, 1, 3, 4, 2, 1]",NA,"[2, 3, 4, 1, 3, 4, 2, 1]","random",512,511,416,415,101,368,367,0,544,543,79,"training",79
"524",0,2,NA,NA,NA,NA,NA,NA,"pen",NA,0,NA,468,"[4]",NA,"[3, 2, 4, 1, 2, 4, 3, 1]","random",NA,NA,NA,NA,101,NA,NA,0,NA,NA,80,"training",80
"525",1,3,384,383,400,399,368,367,"pen",NA,3008,427,427,"[1, 2, 3, 4, 1, 3, 2, 4]",NA,"[1, 2, 3, 4, 1, 3, 2, 4]","random",432,431,592,591,101,384,383,0,448,447,81,"training",81
"526",1,3,544,543,576,575,576,575,"pen",NA,4032,452,452,"[1, 4, 3, 2, 3, 1, 4, 2]",NA,"[1, 4, 3, 2, 3, 1, 4, 2]","random",544,543,592,591,101,528,527,0,672,671,82,"training",82
"527",1,3,560,559,528,527,480,479,"pen",NA,3792,468,468,"[2, 3, 1, 4, 3, 1, 2, 4]",NA,"[2, 3, 1, 4, 3, 1, 2, 4]","random",544,543,576,575,101,576,575,0,528,527,83,"training",83
"528",1,3,528,527,528,527,544,543,"pen",NA,3664,532,532,"[1, 2, 3, 4, 1, 2, 4, 3]",NA,"[1, 2, 3, 4, 1, 2, 4, 3]","random",544,543,496,495,101,528,527,0,496,495,84,"training",84
"529",1,3,464,463,496,495,496,495,"pen",NA,3456,468,468,"[3, 1, 2, 4, 1, 4, 2, 3]",NA,"[3, 1, 2, 4, 1, 4, 2, 3]","random",496,495,480,479,101,496,495,0,528,527,85,"training",85
"530",1,3,400,399,416,415,464,463,"pen",NA,3152,612,612,"[3, 4, 2, 1, 3, 2, 1, 4]",NA,"[3, 4, 2, 1, 3, 2, 1, 4]","random",480,479,464,463,101,432,431,0,496,495,86,"training",86
"531",1,3,544,543,560,559,544,543,"pen",NA,3856,500,500,"[4, 2, 1, 3, 4, 2, 3, 1]",NA,"[4, 2, 1, 3, 4, 2, 3, 1]","random",608,607,544,543,101,544,543,0,512,511,87,"training",87
"532",1,3,544,543,560,559,448,447,"pen",NA,4320,660,660,"[1, 2, 4, 3, 1, 3, 4, 2]",NA,"[1, 2, 4, 3, 1, 3, 4, 2]","random",544,543,480,479,101,1136,1135,0,608,607,88,"training",88
"533",1,3,480,479,480,479,400,399,"pen",NA,3408,436,436,"[1, 3, 4, 2, 3, 4, 2, 1]",NA,"[1, 3, 4, 2, 3, 4, 2, 1]","random",544,543,496,495,101,496,495,0,512,511,89,"training",89
"534",1,3,560,559,512,511,480,479,"pen",NA,3472,676,676,"[1, 3, 2, 4, 2, 1, 3, 4]",NA,"[1, 3, 2, 4, 2, 1, 3, 4]","random",416,415,528,527,101,464,463,0,512,511,90,"training",90
"535",1,3,464,463,528,527,544,543,"pen",NA,3600,564,564,"[2, 4, 3, 1, 3, 2, 4, 1]",NA,"[2, 4, 3, 1, 3, 2, 4, 1]","random",432,431,496,495,101,592,591,0,544,543,91,"training",91
"536",1,3,416,415,432,431,400,399,"pen",NA,3040,403,403,"[4, 2, 1, 3, 2, 4, 1, 3]",NA,"[4, 2, 1, 3, 2, 4, 1, 3]","random",448,447,432,431,101,480,479,0,432,431,92,"training",92
"537",1,3,448,447,496,495,448,447,"pen",NA,3216,452,452,"[4, 2, 3, 1, 2, 3, 4, 1]",NA,"[4, 2, 3, 1, 2, 3, 4, 1]","random",416,415,464,463,101,384,383,0,560,559,93,"training",93
"538",1,3,480,479,448,447,416,415,"pen",NA,3056,436,436,"[1, 3, 2, 4, 1, 3, 2, 4]",NA,"[1, 3, 2, 4, 1, 3, 2, 4]","random",368,367,512,511,101,432,431,0,400,399,94,"training",94
"539",1,3,544,543,496,495,496,495,"pen",NA,3616,548,548,"[1, 3, 4, 2, 4, 2, 3, 1]",NA,"[1, 3, 4, 2, 4, 2, 3, 1]","random",528,527,528,527,101,528,527,0,496,495,95,"training",95
"540",1,3,496,495,496,495,512,511,"pen",NA,3536,466,466,"[3, 4, 1, 2, 3, 2, 4, 1]",NA,"[3, 4, 1, 2, 3, 2, 4, 1]","random",528,527,528,527,101,448,447,0,528,527,96,"training",96
"541",1,3,528,527,656,655,384,383,"pen",NA,3712,484,484,"[4, 3, 2, 1, 3, 4, 1, 2]",NA,"[4, 3, 2, 1, 3, 4, 1, 2]","random",608,607,528,527,101,400,399,0,608,607,97,"training",97
"542",1,3,544,543,480,479,480,479,"pen",NA,3536,468,468,"[1, 3, 4, 2, 1, 4, 3, 2]",NA,"[1, 3, 4, 2, 1, 4, 3, 2]","random",528,527,528,527,101,544,543,0,432,431,98,"training",98
"543",1,3,400,399,544,543,528,527,"pen",NA,3392,532,532,"[2, 4, 3, 1, 3, 1, 2, 4]",NA,"[2, 4, 3, 1, 3, 1, 2, 4]","random",512,511,464,463,101,496,495,0,448,447,99,"training",99
"544",1,3,432,431,480,479,448,447,"pen",NA,3184,420,420,"[3, 1, 4, 2, 4, 1, 2, 3]",NA,"[3, 1, 4, 2, 4, 1, 2, 3]","random",464,463,480,479,101,432,431,0,448,447,100,"training",100
"545",1,3,448,447,544,543,480,479,"pen",NA,3376,484,484,"[4, 3, 1, 2, 1, 4, 3, 2]",NA,"[4, 3, 1, 2, 1, 4, 3, 2]","random",560,559,400,399,101,464,463,0,480,479,101,"training",101
"546",1,3,432,431,432,431,416,415,"pen",NA,3072,366,366,"[1, 3, 4, 2, 1, 2, 4, 3]",NA,"[1, 3, 4, 2, 1, 2, 4, 3]","random",464,463,464,463,101,448,447,0,416,415,102,"training",102
"547",1,3,432,431,576,575,384,383,"pen",NA,3456,435,435,"[1, 4, 2, 3, 2, 4, 3, 1]",NA,"[1, 4, 2, 3, 2, 4, 3, 1]","random",544,543,464,463,101,464,463,0,592,591,103,"training",103
"548",1,3,480,479,528,527,400,399,"pen",NA,3200,435,435,"[4, 3, 2, 1, 3, 1, 4, 2]",NA,"[4, 3, 2, 1, 3, 1, 4, 2]","random",480,479,480,479,101,416,415,0,416,415,104,"training",104
"549",1,3,688,687,432,431,384,383,"pen",NA,3360,581,581,"[3, 2, 1, 4, 1, 4, 2, 3]",NA,"[3, 2, 1, 4, 1, 4, 2, 3]","random",576,575,448,447,101,368,367,0,464,463,105,"training",105
"550",1,3,480,479,592,591,416,415,"pen",NA,3392,468,468,"[4, 3, 2, 1, 4, 1, 3, 2]",NA,"[4, 3, 2, 1, 4, 1, 3, 2]","random",544,543,448,447,101,400,399,0,512,511,106,"training",106
"551",1,3,544,543,432,431,432,431,"pen",NA,3168,515,515,"[3, 2, 4, 1, 4, 2, 1, 3]",NA,"[3, 2, 4, 1, 4, 2, 1, 3]","random",480,479,416,415,101,384,383,0,480,479,107,"training",107
"552",1,3,368,367,416,415,448,447,"pen",NA,3024,420,420,"[2, 4, 1, 3, 1, 3, 4, 2]",NA,"[2, 4, 1, 3, 1, 3, 4, 2]","random",480,479,448,447,101,432,431,0,432,431,108,"training",108
"553",1,3,400,399,384,383,400,399,"pen",NA,3040,452,452,"[1, 3, 4, 2, 1, 4, 2, 3]",NA,"[1, 3, 4, 2, 1, 4, 2, 3]","random",416,415,416,415,101,480,479,0,544,543,109,"training",109
"554",1,3,512,511,496,495,736,735,"pen",NA,3488,355,355,"[2, 4, 3, 1, 3, 2, 4, 1]",NA,"[2, 4, 3, 1, 3, 2, 4, 1]","random",400,399,528,527,101,432,431,0,384,383,110,"training",110
"555",1,3,368,367,400,399,416,415,"pen",NA,2960,451,451,"[4, 3, 2, 1, 4, 2, 3, 1]",NA,"[4, 3, 2, 1, 4, 2, 3, 1]","random",400,399,480,479,101,400,399,0,496,495,111,"training",111
"556",1,3,528,527,480,479,400,399,"pen",NA,3232,435,435,"[3, 1, 2, 4, 1, 3, 4, 2]",NA,"[3, 1, 2, 4, 1, 3, 4, 2]","random",448,447,480,479,101,448,447,0,448,447,112,"training",112
"557",1,3,416,415,448,447,384,383,"pen",NA,3152,451,451,"[1, 4, 3, 2, 4, 3, 2, 1]",NA,"[1, 4, 3, 2, 4, 3, 2, 1]","random",432,431,528,527,101,496,495,0,448,447,113,"training",113
"558",1,3,416,415,480,479,496,495,"pen",NA,3200,403,403,"[4, 3, 1, 2, 3, 4, 2, 1]",NA,"[4, 3, 1, 2, 3, 4, 2, 1]","random",432,431,336,335,101,528,527,0,512,511,114,"training",114
"559",1,3,352,351,416,415,464,463,"pen",NA,3216,419,419,"[4, 1, 2, 3, 4, 3, 2, 1]",NA,"[4, 1, 2, 3, 4, 3, 2, 1]","random",384,383,560,559,101,512,511,0,528,527,115,"training",115
"560",1,3,512,511,496,495,432,431,"pen",NA,3232,403,403,"[2, 4, 3, 1, 4, 2, 1, 3]",NA,"[2, 4, 3, 1, 4, 2, 1, 3]","random",464,463,480,479,101,432,431,0,416,415,116,"training",116
"561",1,3,416,415,464,463,384,383,"pen",NA,3056,403,403,"[4, 3, 2, 1, 3, 2, 1, 4]",NA,"[4, 3, 2, 1, 3, 2, 1, 4]","random",432,431,448,447,101,384,383,0,528,527,117,"training",117
"562",1,3,448,447,496,495,480,479,"pen",NA,3424,467,467,"[1, 2, 4, 3, 4, 1, 3, 2]",NA,"[1, 2, 4, 3, 4, 1, 3, 2]","random",528,527,528,527,101,464,463,0,480,479,118,"training",118
"563",1,3,432,431,544,543,448,447,"pen",NA,3488,483,483,"[1, 2, 4, 3, 1, 4, 2, 3]",NA,"[1, 2, 4, 3, 1, 4, 2, 3]","random",496,495,512,511,101,560,559,0,496,495,119,"training",119
"564",1,3,384,383,560,559,400,399,"pen",NA,3088,403,403,"[4, 1, 3, 2, 3, 1, 4, 2]",NA,"[4, 1, 3, 2, 3, 1, 4, 2]","random",432,431,416,415,101,464,463,0,432,431,120,"training",120
"565",1,4,336,335,400,399,416,415,"pen",NA,2720,347,347,"[1, 3, 2, 4, 1, 3, 4, 2]",NA,"[1, 3, 2, 4, 1, 3, 4, 2]","random",448,447,368,367,101,368,367,0,384,383,121,"training",121
"566",1,4,400,399,432,431,432,431,"pen",NA,2928,403,403,"[3, 4, 2, 1, 3, 2, 4, 1]",NA,"[3, 4, 2, 1, 3, 2, 4, 1]","random",384,383,400,399,101,448,447,0,432,431,122,"training",122
"567",1,4,368,367,400,399,432,431,"pen",NA,2880,387,387,"[2, 1, 4, 3, 2, 1, 3, 4]",NA,"[2, 1, 4, 3, 2, 1, 3, 4]","random",464,463,368,367,101,416,415,0,432,431,123,"training",123
"568",1,4,416,415,496,495,480,479,"pen",NA,3216,387,387,"[2, 4, 3, 1, 3, 1, 2, 4]",NA,"[2, 4, 3, 1, 3, 1, 2, 4]","random",464,463,448,447,101,448,447,0,464,463,124,"training",124
"569",1,4,368,367,432,431,432,432,"pen",NA,3040,355,355,"[2, 1, 4, 3, 1, 3, 2, 4]",NA,"[2, 1, 4, 3, 1, 3, 2, 4]","random",480,479,432,431,101,432,431,0,464,463,125,"training",125
"570",1,4,416,415,480,479,432,431,"pen",NA,3232,355,355,"[2, 3, 4, 1, 2, 1, 3, 4]",NA,"[2, 3, 4, 1, 2, 1, 3, 4]","random",480,479,592,591,101,432,431,0,400,399,126,"training",126
"571",0,4,NA,335,480,479,416,415,"pen",NA,3312,355,355,"[2, 3, 4, 1, 4, 1, 3, 1]",NA,"[2, 3, 4, 1, 4, 1, 3, 2]","random",528,527,736,735,101,416,415,0,400,399,127,"training",127
"572",1,4,752,751,400,399,400,399,"pen",NA,3632,492,492,"[4, 1, 3, 2, 4, 1, 2, 3]",NA,"[4, 1, 3, 2, 4, 1, 2, 3]","random",512,511,560,559,101,464,463,0,544,543,128,"training",128
"573",1,4,608,607,560,559,448,447,"pen",NA,4016,435,435,"[3, 2, 1, 4, 2, 1, 3, 4]",NA,"[3, 2, 1, 4, 2, 1, 3, 4]","random",528,527,576,575,101,608,607,0,688,687,129,"training",129
"574",1,4,448,447,480,479,448,447,"pen",NA,3344,435,435,"[2, 3, 4, 1, 4, 3, 1, 2]",NA,"[2, 3, 4, 1, 4, 3, 1, 2]","random",480,479,560,559,101,464,463,0,464,463,130,"training",130
"575",1,4,464,463,448,447,464,463,"pen",NA,3168,371,371,"[2, 4, 3, 1, 2, 4, 3, 1]",NA,"[2, 4, 3, 1, 2, 4, 3, 1]","random",416,415,432,431,101,480,479,0,464,463,131,"training",131
"576",1,4,448,447,480,479,448,447,"pen",NA,3088,435,435,"[3, 2, 1, 4, 2, 3, 1, 4]",NA,"[3, 2, 1, 4, 2, 3, 1, 4]","random",432,431,400,399,101,432,431,0,448,447,132,"training",132
"577",1,4,416,415,496,495,416,415,"pen",NA,3264,483,483,"[4, 2, 1, 3, 4, 3, 2, 1]",NA,"[4, 2, 1, 3, 4, 3, 2, 1]","random",432,431,640,639,101,448,447,0,416,415,133,"training",133
"578",1,4,400,399,624,623,448,447,"pen",NA,3488,643,643,"[2, 1, 3, 4, 1, 2, 4, 3]",NA,"[2, 1, 3, 4, 1, 2, 4, 3]","random",464,463,528,527,101,448,447,0,576,575,134,"training",134
"579",1,4,368,367,416,415,416,415,"pen",NA,2880,483,483,"[2, 3, 1, 4, 3, 2, 1, 4]",NA,"[2, 3, 1, 4, 3, 2, 1, 4]","random",400,399,400,399,101,448,447,0,432,431,135,"training",135
"580",1,4,416,415,432,431,432,431,"pen",NA,3120,403,403,"[4, 1, 3, 2, 1, 3, 2, 4]",NA,"[4, 1, 3, 2, 1, 3, 2, 4]","random",432,431,512,511,101,448,447,0,448,447,136,"training",136
"581",1,4,448,447,464,463,480,479,"pen",NA,3440,739,739,"[3, 2, 4, 1, 2, 3, 1, 4]",NA,"[3, 2, 4, 1, 2, 3, 1, 4]","random",656,655,432,431,101,512,511,0,448,447,137,"training",137
"582",1,4,512,511,528,527,528,527,"pen",NA,3616,435,435,"[2, 4, 3, 1, 2, 4, 3, 1]",NA,"[2, 4, 3, 1, 2, 4, 3, 1]","random",496,495,480,479,101,512,511,0,560,559,138,"training",138
"583",1,4,432,431,432,431,416,415,"pen",NA,3296,483,483,"[1, 4, 2, 3, 2, 1, 4, 3]",NA,"[1, 4, 2, 3, 2, 1, 4, 3]","random",432,431,448,447,101,448,447,0,688,687,139,"training",139
"584",1,4,384,383,464,463,432,431,"pen",NA,3072,371,371,"[2, 3, 1, 4, 1, 2, 3, 4]",NA,"[2, 3, 1, 4, 1, 2, 3, 4]","random",384,383,512,511,101,448,447,0,448,447,140,"training",140
"585",1,4,432,431,432,431,432,431,"pen",NA,3136,387,387,"[2, 3, 4, 1, 2, 3, 1, 4]",NA,"[2, 3, 4, 1, 2, 3, 1, 4]","random",480,479,480,479,101,448,447,0,432,431,141,"training",141
"586",1,4,448,447,480,479,480,479,"pen",NA,3296,435,435,"[4, 3, 1, 2, 3, 2, 4, 1]",NA,"[4, 3, 1, 2, 3, 2, 4, 1]","random",416,415,480,479,101,464,463,0,528,527,142,"training",142
"587",1,4,400,399,480,479,416,415,"pen",NA,3104,419,419,"[3, 4, 2, 1, 3, 2, 4, 1]",NA,"[3, 4, 2, 1, 3, 2, 4, 1]","random",416,415,416,415,101,464,463,0,512,511,143,"training",143
"588",1,4,448,447,528,527,512,511,"pen",NA,3536,450,450,"[1, 3, 4, 2, 1, 3, 4, 2]",NA,"[1, 3, 4, 2, 1, 3, 4, 2]","random",480,479,528,527,101,496,495,0,544,543,144,"training",144
"589",1,4,560,559,480,479,528,527,"pen",NA,3824,387,387,"[4, 3, 2, 1, 2, 3, 1, 4]",NA,"[4, 3, 2, 1, 2, 3, 1, 4]","random",624,623,528,527,101,576,575,0,528,527,145,"training",145
"590",1,4,544,543,496,495,576,575,"pen",NA,3904,403,403,"[4, 1, 2, 3, 4, 1, 3, 2]",NA,"[4, 1, 2, 3, 4, 1, 3, 2]","random",576,575,528,527,101,608,607,0,576,575,146,"training",146
"591",1,4,560,559,448,447,448,447,"pen",NA,3472,387,387,"[3, 4, 2, 1, 2, 3, 1, 4]",NA,"[3, 4, 2, 1, 2, 3, 1, 4]","random",432,431,480,479,101,560,559,0,544,543,147,"training",147
"592",1,4,448,447,688,687,496,495,"pen",NA,3712,675,675,"[2, 3, 1, 4, 1, 2, 3, 4]",NA,"[2, 3, 1, 4, 1, 2, 3, 4]","random",464,463,592,591,101,432,431,0,592,591,148,"training",148
"593",1,4,448,447,448,447,480,479,"pen",NA,3168,371,371,"[2, 4, 3, 1, 3, 4, 1, 2]",NA,"[2, 4, 3, 1, 3, 4, 1, 2]","random",416,415,480,479,101,464,463,0,432,431,149,"training",149
