"","accuracy","block","eight_IKI","eight_RT","five_IKI","five_RT","four_IKI","four_RT","group","max_time","movement_time","one_IKI","one_RT","pressed","seq_keys","sequence","seven_IKI","seven_RT","six_IKI","six_RT","subject","three_IKI","three_RT","too_slow","two_IKI","two_RT","t","sess","trial"
"1",1,1,336,335,464,463,320,319,"non",3314,2880,277,277,"[1, 4, 2, 3, 1, 3, 4, 2]","[1, 4, 2, 3, 1, 3, 4, 2]","C",400,399,464,463,101,416,415,0,480,479,1,"reward",1
"2",1,1,544,543,336,335,304,303,"non",3314,2800,391,391,"[1, 4, 2, 3, 1, 3, 4, 2]","[1, 4, 2, 3, 1, 3, 4, 2]","C",416,415,448,447,101,336,335,0,416,415,2,"reward",2
"3",0,1,NA,NA,NA,NA,NA,NA,"non",3314,0,NA,554,"[2]","[3, 2, 4, 1, 2, 4, 3, 1]","B",NA,NA,NA,NA,101,NA,NA,0,NA,NA,1,"reward",1
"4",1,1,368,367,384,384,336,335,"non",3314,2768,444,444,"[1, 4, 2, 3, 1, 3, 4, 2]","[1, 4, 2, 3, 1, 3, 4, 2]","C",464,463,400,399,101,352,352,0,464,463,3,"reward",3
"5",0,1,528,527,384,383,624,623,"non",3314,3168,555,555,"[4, 3, 1, 4, 2, 3, 1, 2]","[4, 3, 1, 4, 2, 3, 1, 2]","A",368,367,352,351,101,496,495,1,416,415,1,"reward",1
"6",1,1,320,319,336,335,272,272,"non",3314,2416,362,362,"[1, 4, 2, 3, 1, 3, 4, 2]","[1, 4, 2, 3, 1, 3, 4, 2]","C",368,367,384,383,101,320,319,0,416,415,4,"reward",4
"7",1,1,384,383,352,351,336,335,"non",3314,2816,359,359,"[3, 2, 4, 1, 2, 4, 3, 1]","[3, 2, 4, 1, 2, 4, 3, 1]","B",384,383,512,511,101,416,415,0,432,431,2,"reward",2
"8",0,1,432,431,384,383,320,319,"non",3314,2768,614,614,"[3, 2, 4, 1, 2, 4, 3, 1]","[3, 2, 4, 1, 2, 4, 3, 1]","B",432,431,464,463,101,416,415,1,320,319,3,"reward",3
"9",0,1,304,303,336,335,528,527,"non",3314,2912,524,524,"[3, 2, 4, 1, 2, 4, 3, 1]","[3, 2, 4, 1, 2, 4, 3, 1]","B",416,415,544,544,101,432,431,1,352,351,4,"reward",4
"10",1,1,544,543,288,287,480,479,"non",3314,2592,470,470,"[4, 3, 1, 4, 2, 3, 1, 2]","[4, 3, 1, 4, 2, 3, 1, 2]","A",240,239,352,352,101,304,303,0,384,383,2,"reward",2
"11",1,1,432,431,352,351,464,463,"non",3314,2608,342,342,"[4, 3, 1, 4, 2, 3, 1, 2]","[4, 3, 1, 4, 2, 3, 1, 2]","A",320,319,288,287,101,304,303,0,448,447,3,"reward",3
"12",0,1,NA,NA,NA,NA,NA,383,"non",3314,1056,422,422,"[4, 3, 1, 3]","[4, 3, 1, 4, 2, 3, 1, 2]","A",NA,NA,NA,NA,101,320,319,0,352,351,4,"reward",4
"13",1,1,384,384,288,287,256,255,"non",3314,2368,397,397,"[1, 4, 2, 3, 1, 3, 4, 2]","[1, 4, 2, 3, 1, 3, 4, 2]","C",368,367,400,400,101,304,303,0,368,367,5,"reward",5
"14",1,1,352,351,304,304,288,287,"non",3314,2336,399,399,"[1, 4, 2, 3, 1, 3, 4, 2]","[1, 4, 2, 3, 1, 3, 4, 2]","C",368,367,400,399,101,288,287,0,336,335,6,"reward",6
"15",0,1,NA,NA,NA,NA,NA,NA,"non",3314,608,438,438,"[3, 2, 3]","[3, 2, 4, 1, 2, 4, 3, 1]","B",NA,NA,NA,NA,101,NA,287,0,320,319,5,"reward",5
"16",0,1,NA,NA,336,335,400,400,"non",3314,1872,516,516,"[4, 3, 1, 4, 2, 3, 3]","[4, 3, 1, 4, 2, 3, 1, 2]","A",NA,95,320,319,101,320,319,0,400,399,5,"reward",5
"17",0,1,304,303,448,447,384,384,"non",3314,2864,556,556,"[3, 2, 4, 1, 2, 4, 3, 1]","[3, 2, 4, 1, 2, 4, 3, 1]","B",432,431,512,511,101,368,368,1,416,415,6,"reward",6
"18",1,1,464,463,320,319,304,303,"non",3314,2592,377,377,"[1, 4, 2, 3, 1, 3, 4, 2]","[1, 4, 2, 3, 1, 3, 4, 2]","C",304,303,592,591,101,288,287,0,320,319,7,"reward",7
"19",1,1,304,303,448,448,288,287,"non",3314,2800,344,344,"[3, 2, 4, 1, 2, 4, 3, 1]","[3, 2, 4, 1, 2, 4, 3, 1]","B",416,415,448,447,101,368,367,0,528,527,7,"reward",7
"20",1,1,512,511,320,319,432,431,"non",3314,2512,453,453,"[4, 3, 1, 4, 2, 3, 1, 2]","[4, 3, 1, 4, 2, 3, 1, 2]","A",304,304,304,303,101,288,287,0,352,351,6,"reward",6
"21",1,1,480,479,336,336,464,463,"non",3314,2576,406,406,"[4, 3, 1, 4, 2, 3, 1, 2]","[4, 3, 1, 4, 2, 3, 1, 2]","A",288,287,288,288,101,288,287,0,432,431,7,"reward",7
"22",1,1,304,303,464,463,256,255,"non",3314,2576,307,307,"[3, 2, 4, 1, 2, 4, 3, 1]","[3, 2, 4, 1, 2, 4, 3, 1]","B",464,463,384,383,101,400,399,0,304,303,8,"reward",8
"23",1,1,512,511,336,335,416,415,"non",3314,2544,389,389,"[4, 3, 1, 4, 2, 3, 1, 2]","[4, 3, 1, 4, 2, 3, 1, 2]","A",272,271,304,303,101,272,271,0,432,431,8,"reward",8
"24",1,1,432,431,416,415,512,511,"non",3314,2624,342,342,"[4, 3, 1, 4, 2, 3, 1, 2]","[4, 3, 1, 4, 2, 3, 1, 2]","A",320,319,272,271,101,288,288,0,384,383,9,"reward",9
"25",0,1,NA,NA,NA,NA,NA,NA,"non",3314,864,340,340,"[3, 2, 3]","[3, 2, 4, 1, 2, 4, 3, 1]","B",NA,NA,NA,NA,101,NA,383,0,480,479,9,"reward",9
"26",1,1,400,399,336,335,400,399,"non",3314,2608,345,345,"[4, 3, 1, 4, 2, 3, 1, 2]","[4, 3, 1, 4, 2, 3, 1, 2]","A",400,399,272,272,101,352,351,0,448,447,10,"reward",10
"27",1,1,400,400,288,287,240,240,"non",3314,2368,453,453,"[1, 4, 2, 3, 1, 3, 4, 2]","[1, 4, 2, 3, 1, 3, 4, 2]","C",288,287,496,495,101,272,271,0,384,383,8,"reward",8
"28",1,1,320,319,272,271,272,272,"non",3314,2208,403,403,"[1, 4, 2, 3, 1, 3, 4, 2]","[1, 4, 2, 3, 1, 3, 4, 2]","C",304,303,416,415,101,256,255,0,368,367,9,"reward",9
"29",1,1,496,496,320,319,448,447,"non",3314,2528,369,369,"[4, 3, 1, 4, 2, 3, 1, 2]","[4, 3, 1, 4, 2, 3, 1, 2]","A",288,287,256,256,101,336,335,0,384,383,11,"reward",11
"30",0,1,256,255,352,352,208,207,"non",2953,2512,575,575,"[3, 2, 4, 1, 2, 4, 3, 1]","[3, 2, 4, 1, 2, 4, 3, 1]","B",496,495,432,431,101,448,447,1,320,319,10,"reward",10
"31",0,1,NA,NA,416,415,288,287,"non",2953,2080,323,323,"[3, 2, 4, 1, 2, 4, 2]","[3, 2, 4, 1, 2, 4, 3, 1]","B",NA,287,384,383,101,320,319,0,384,383,11,"reward",11
"32",0,1,384,383,320,320,352,352,"non",2953,2576,436,436,"[1, 4, 2, 3, 1, 3, 4, 2]","[1, 4, 2, 3, 1, 3, 4, 2]","C",416,415,416,415,101,320,319,1,368,368,10,"reward",10
"33",0,1,NA,NA,NA,NA,NA,NA,"non",2953,288,384,384,"[4, 2]","[4, 3, 1, 4, 2, 3, 1, 2]","A",NA,NA,NA,NA,101,NA,NA,0,NA,287,12,"reward",12
"34",0,1,432,431,304,303,224,223,"non",2953,2704,386,386,"[1, 4, 2, 3, 1, 3, 4, 2]","[1, 4, 2, 3, 1, 3, 4, 2]","C",416,415,672,671,101,288,287,1,368,367,11,"reward",11
"35",1,1,352,351,352,351,272,271,"non",2953,2368,385,385,"[1, 4, 2, 3, 1, 3, 4, 2]","[1, 4, 2, 3, 1, 3, 4, 2]","C",400,399,416,415,101,288,287,0,288,287,12,"reward",12
"36",0,1,448,447,368,368,224,224,"non",2961,2544,495,495,"[3, 2, 4, 1, 2, 4, 3, 1]","[3, 2, 4, 1, 2, 4, 3, 1]","B",352,351,416,415,101,416,415,1,320,319,12,"reward",12
"37",0,2,416,415,352,351,288,288,"non",2961,2560,451,451,"[1, 4, 2, 3, 1, 3, 4, 2]","[1, 4, 2, 3, 1, 3, 4, 2]","C",368,367,512,511,101,256,255,1,368,367,13,"reward",13
"38",1,2,304,303,336,335,256,255,"non",2961,2128,403,403,"[1, 4, 2, 3, 1, 3, 4, 2]","[1, 4, 2, 3, 1, 3, 4, 2]","C",320,319,400,399,101,256,255,0,256,255,14,"reward",14
"39",0,2,NA,NA,NA,NA,NA,319,"non",2929,1104,464,464,"[4, 3, 1, 3]","[4, 3, 1, 4, 2, 3, 1, 2]","A",NA,NA,NA,NA,101,352,351,0,432,431,13,"reward",13
"40",1,2,304,303,272,272,304,304,"non",2929,2480,387,387,"[1, 4, 2, 3, 1, 3, 4, 2]","[1, 4, 2, 3, 1, 3, 4, 2]","C",400,399,592,592,101,304,303,0,304,303,15,"reward",15
"41",1,2,464,463,272,272,400,399,"non",2913,2368,369,369,"[4, 3, 1, 4, 2, 3, 1, 2]","[4, 3, 1, 4, 2, 3, 1, 2]","A",208,207,288,288,101,320,319,0,416,415,14,"reward",14
"42",0,2,NA,NA,NA,NA,NA,NA,"non",2913,320,385,385,"[3, 4]","[3, 2, 4, 1, 2, 4, 3, 1]","B",NA,NA,NA,NA,101,NA,NA,0,NA,319,13,"reward",13
"43",1,2,448,447,304,303,416,416,"non",2913,2416,417,417,"[4, 3, 1, 4, 2, 3, 1, 2]","[4, 3, 1, 4, 2, 3, 1, 2]","A",272,271,304,304,101,320,319,0,352,351,15,"reward",15
"44",1,2,464,463,272,271,400,399,"non",2899,2384,397,397,"[4, 3, 1, 4, 2, 3, 1, 2]","[4, 3, 1, 4, 2, 3, 1, 2]","A",208,207,304,303,101,288,287,0,448,447,16,"reward",16
"45",0,2,NA,NA,256,255,368,367,"non",2867,1712,271,271,"[4, 3, 1, 4, 2, 3, 2]","[4, 3, 1, 4, 2, 3, 1, 2]","A",NA,255,288,287,101,272,271,0,272,271,17,"reward",17
"46",0,2,480,479,320,319,336,335,"non",2867,2560,319,319,"[4, 3, 1, 4, 2, 3, 1, 2]","[4, 3, 1, 4, 2, 3, 1, 2]","A",304,303,256,256,101,336,335,1,528,527,18,"reward",18
"47",1,2,176,175,288,288,368,367,"non",2867,1824,322,322,"[4, 3, 1, 4, 2, 3, 1, 2]","[4, 3, 1, 4, 2, 3, 1, 2]","A",240,239,288,288,101,224,223,0,240,239,19,"reward",19
"48",1,2,304,303,352,352,224,223,"non",2803,2400,373,373,"[3, 2, 4, 1, 2, 4, 3, 1]","[3, 2, 4, 1, 2, 4, 3, 1]","B",448,447,416,415,101,368,367,0,288,287,14,"reward",14
"49",0,2,NA,NA,NA,NA,NA,NA,"non",2801,256,289,289,"[3, 4]","[3, 2, 4, 1, 2, 4, 3, 1]","B",NA,NA,NA,NA,101,NA,NA,0,NA,255,15,"reward",15
"50",0,2,272,271,272,271,320,319,"non",2801,2576,337,337,"[1, 4, 2, 3, 1, 3, 4, 2]","[1, 4, 2, 3, 1, 3, 4, 2]","C",672,671,400,399,101,320,320,1,320,319,16,"reward",16
"51",0,2,544,543,288,287,544,543,"non",2801,2880,319,319,"[1, 4, 2, 3, 1, 3, 4, 2]","[1, 4, 2, 3, 1, 3, 4, 2]","C",480,479,480,479,101,368,367,1,176,175,17,"reward",17
"52",0,2,NA,NA,NA,NA,NA,255,"non",2801,880,257,257,"[3, 2, 4, 2]","[3, 2, 4, 1, 2, 4, 3, 1]","B",NA,NA,NA,NA,101,336,335,0,288,288,16,"reward",16
"53",0,2,NA,NA,320,319,256,255,"non",2801,1776,272,272,"[4, 3, 1, 4, 2, 3, 2]","[4, 3, 1, 4, 2, 3, 1, 2]","A",NA,255,256,255,101,272,271,0,416,415,20,"reward",20
"54",0,2,NA,NA,400,399,368,367,"non",2801,2288,273,273,"[3, 2, 4, 1, 2, 4, 2]","[3, 2, 4, 1, 2, 4, 3, 1]","B",NA,287,464,463,101,464,463,0,304,303,17,"reward",17
"55",1,2,336,335,416,415,256,255,"non",2801,2416,309,309,"[3, 2, 4, 1, 2, 4, 3, 1]","[3, 2, 4, 1, 2, 4, 3, 1]","B",464,463,400,399,101,336,335,0,208,207,18,"reward",18
"56",0,2,224,223,400,399,256,255,"non",2793,2464,476,476,"[3, 2, 4, 1, 2, 4, 3, 1]","[3, 2, 4, 1, 2, 4, 3, 1]","B",608,607,528,528,101,224,224,1,224,223,19,"reward",19
"57",1,2,336,335,448,448,192,191,"non",2793,2208,309,309,"[3, 2, 4, 1, 2, 4, 3, 1]","[3, 2, 4, 1, 2, 4, 3, 1]","B",480,479,304,303,101,256,255,0,192,191,20,"reward",20
"58",0,2,464,463,240,240,320,319,"non",2789,2800,300,300,"[1, 4, 2, 3, 1, 3, 4, 2]","[1, 4, 2, 3, 1, 3, 4, 2]","C",464,463,672,672,101,448,448,1,192,191,18,"reward",18
"59",0,2,368,367,272,271,368,367,"non",2789,2656,242,242,"[1, 4, 2, 3, 1, 3, 4, 2]","[1, 4, 2, 3, 1, 3, 4, 2]","C",608,607,480,480,101,368,367,1,192,191,19,"reward",19
"60",0,2,544,543,368,367,256,255,"non",2789,2480,315,315,"[4, 3, 1, 4, 2, 3, 1, 2]","[4, 3, 1, 4, 2, 3, 1, 2]","A",288,287,288,287,101,368,367,1,368,367,21,"reward",21
"61",1,2,320,319,400,399,288,287,"non",2789,2368,238,238,"[3, 2, 4, 1, 2, 4, 3, 1]","[3, 2, 4, 1, 2, 4, 3, 1]","B",336,335,528,527,101,336,335,0,160,159,21,"reward",21
"62",1,2,256,255,240,239,432,431,"non",2773,2336,292,292,"[1, 4, 2, 3, 1, 3, 4, 2]","[1, 4, 2, 3, 1, 3, 4, 2]","C",448,447,496,496,101,368,367,0,96,95,20,"reward",20
"63",0,2,NA,NA,448,447,288,287,"non",2753,1536,277,277,"[1, 4, 2, 3, 1, 4]","[1, 4, 2, 3, 1, 3, 4, 2]","C",NA,NA,NA,304,101,336,335,0,160,160,21,"reward",21
"64",0,2,NA,NA,464,463,352,351,"non",2753,2192,338,338,"[3, 2, 4, 1, 2, 4, 2]","[3, 2, 4, 1, 2, 4, 3, 1]","B",NA,271,528,527,101,400,400,0,176,175,22,"reward",22
"65",1,2,288,287,400,400,304,303,"non",2753,2448,286,286,"[3, 2, 4, 1, 2, 4, 3, 1]","[3, 2, 4, 1, 2, 4, 3, 1]","B",448,447,432,431,101,400,399,0,176,175,23,"reward",23
"66",1,2,304,303,288,287,256,255,"non",2753,2432,256,256,"[1, 4, 2, 3, 1, 3, 4, 2]","[1, 4, 2, 3, 1, 3, 4, 2]","C",480,479,512,511,101,304,303,0,288,287,22,"reward",22
"67",0,2,528,527,576,576,432,432,"non",2753,2784,253,253,"[4, 3, 1, 4, 2, 3, 1, 2]","[4, 3, 1, 4, 2, 3, 1, 2]","A",240,239,400,399,101,256,255,1,352,351,22,"reward",22
"68",0,2,NA,NA,464,464,256,255,"non",2753,1824,271,271,"[3, 2, 4, 1, 2, 4, 2]","[3, 2, 4, 1, 2, 4, 3, 1]","B",NA,207,528,527,101,240,239,0,128,127,24,"reward",24
"69",1,2,464,463,288,287,304,303,"non",2753,2368,304,304,"[4, 3, 1, 4, 2, 3, 1, 2]","[4, 3, 1, 4, 2, 3, 1, 2]","A",272,271,336,335,101,272,271,0,432,431,23,"reward",23
"70",0,2,NA,NA,464,463,304,303,"non",2713,1632,252,252,"[1, 4, 2, 3, 1, 4]","[1, 4, 2, 3, 1, 3, 4, 2]","C",NA,NA,NA,207,101,448,448,0,208,207,23,"reward",23
"71",1,2,256,255,480,480,256,256,"non",2713,2320,271,271,"[1, 4, 2, 3, 1, 3, 4, 2]","[1, 4, 2, 3, 1, 3, 4, 2]","C",464,463,368,367,101,192,191,0,304,303,24,"reward",24
"72",0,2,NA,NA,NA,NA,NA,NA,"non",2713,304,268,268,"[4, 2]","[4, 3, 1, 4, 2, 3, 1, 2]","A",NA,NA,NA,NA,101,NA,NA,0,NA,303,24,"reward",24
"73",0,3,464,463,272,271,384,383,"non",2713,2336,739,739,"[4, 3, 1, 4, 2, 3, 1, 2]","[4, 3, 1, 4, 2, 3, 1, 2]","A",272,271,288,288,101,288,287,1,368,367,25,"reward",25
"74",0,3,NA,NA,448,448,272,272,"non",2713,2048,287,287,"[3, 2, 4, 1, 2, 4, 2]","[3, 2, 4, 1, 2, 4, 3, 1]","B",NA,239,544,543,101,256,256,0,288,287,25,"reward",25
"75",0,3,NA,NA,NA,NA,NA,NA,"non",2713,368,269,269,"[3, 2, 1]","[3, 2, 4, 1, 2, 4, 3, 1]","B",NA,NA,NA,NA,101,NA,207,0,160,159,26,"reward",26
"76",0,3,NA,239,368,367,368,368,"non",2713,2064,318,318,"[3, 2, 4, 1, 2, 4, 3, 2]","[3, 2, 4, 1, 2, 4, 3, 1]","B",352,351,352,351,101,224,224,0,160,159,27,"reward",27
"77",0,3,384,384,496,495,320,320,"non",2713,2448,349,349,"[3, 2, 4, 1, 2, 4, 3, 1]","[3, 2, 4, 1, 2, 4, 3, 1]","B",432,431,352,351,101,256,255,1,208,207,28,"reward",28
"78",0,3,240,239,592,592,192,192,"non",2713,2464,255,255,"[3, 2, 4, 1, 2, 4, 3, 1]","[3, 2, 4, 1, 2, 4, 3, 1]","B",560,559,432,431,101,256,255,1,192,191,29,"reward",29
"79",1,3,336,335,448,447,160,159,"non",2713,1984,317,317,"[3, 2, 4, 1, 2, 4, 3, 1]","[3, 2, 4, 1, 2, 4, 3, 1]","B",416,416,240,239,101,224,224,0,160,159,30,"reward",30
"80",0,3,NA,NA,320,319,336,335,"non",2690,1456,218,218,"[1, 4, 2, 3, 1, 4]","[1, 4, 2, 3, 1, 3, 4, 2]","C",NA,NA,NA,271,101,320,319,0,208,207,25,"reward",25
"81",1,3,272,272,448,447,224,224,"non",2690,2112,239,239,"[3, 2, 4, 1, 2, 4, 3, 1]","[3, 2, 4, 1, 2, 4, 3, 1]","B",432,431,336,335,101,240,239,0,160,159,31,"reward",31
"82",1,3,240,239,432,431,192,191,"non",2685,2016,234,234,"[3, 2, 4, 1, 2, 4, 3, 1]","[3, 2, 4, 1, 2, 4, 3, 1]","B",432,431,256,255,101,272,271,0,192,191,32,"reward",32
"83",0,3,NA,NA,NA,NA,NA,NA,"non",2677,224,269,269,"[4, 2]","[4, 3, 1, 4, 2, 3, 1, 2]","A",NA,NA,NA,NA,101,NA,NA,0,NA,223,26,"reward",26
"84",0,3,352,351,384,383,384,383,"non",2677,3072,39,39,"[1, 4, 2, 3, 1, 3, 4, 2]","[1, 4, 2, 3, 1, 3, 4, 2]","C",464,463,560,559,101,448,447,1,480,479,26,"reward",26
"85",0,3,400,399,288,287,464,463,"non",2677,2464,252,252,"[4, 3, 1, 4, 2, 3, 1, 2]","[4, 3, 1, 4, 2, 3, 1, 2]","A",272,271,304,303,101,304,303,1,432,431,27,"reward",27
"86",0,3,NA,NA,NA,NA,NA,NA,"non",2677,192,269,269,"[4, 2]","[4, 3, 1, 4, 2, 3, 1, 2]","A",NA,NA,NA,NA,101,NA,NA,0,NA,191,28,"reward",28
"87",1,3,272,271,288,287,304,303,"non",2677,2112,284,284,"[1, 4, 2, 3, 1, 3, 4, 2]","[1, 4, 2, 3, 1, 3, 4, 2]","C",352,351,384,383,101,336,335,0,176,175,27,"reward",27
"88",0,3,NA,NA,320,319,272,272,"non",2677,1472,333,333,"[1, 4, 2, 3, 1, 4]","[1, 4, 2, 3, 1, 3, 4, 2]","C",NA,NA,NA,367,101,272,271,0,240,239,28,"reward",28
"89",0,3,NA,287,272,271,352,351,"non",2677,2032,340,340,"[4, 3, 1, 4, 2, 3, 1, 3]","[4, 3, 1, 4, 2, 3, 1, 2]","A",240,240,256,256,101,256,255,0,368,367,29,"reward",29
"90",1,3,160,159,416,415,224,223,"non",2677,2224,241,241,"[3, 2, 4, 1, 2, 4, 3, 1]","[3, 2, 4, 1, 2, 4, 3, 1]","B",560,559,416,415,101,288,288,0,160,159,33,"reward",33
"91",0,3,480,479,336,335,416,415,"non",2640,2448,298,298,"[4, 3, 1, 4, 2, 3, 1, 2]","[4, 3, 1, 4, 2, 3, 1, 2]","A",224,223,256,256,101,256,255,1,480,479,30,"reward",30
"92",0,3,304,303,256,255,272,272,"non",2640,2496,316,316,"[1, 4, 2, 3, 1, 3, 4, 2]","[1, 4, 2, 3, 1, 3, 4, 2]","C",576,575,544,543,101,304,303,1,240,239,29,"reward",29
"93",0,3,304,303,352,351,320,319,"non",2640,2448,253,253,"[4, 3, 1, 4, 2, 3, 1, 2]","[4, 3, 1, 4, 2, 3, 1, 2]","A",352,351,304,303,101,240,239,1,576,575,31,"reward",31
"94",1,3,272,271,288,287,272,271,"non",2640,2144,319,319,"[1, 4, 2, 3, 1, 3, 4, 2]","[1, 4, 2, 3, 1, 3, 4, 2]","C",400,399,464,463,101,224,224,0,224,223,30,"reward",30
"95",1,3,176,175,512,511,192,191,"non",2640,2160,272,272,"[3, 2, 4, 1, 2, 4, 3, 1]","[3, 2, 4, 1, 2, 4, 3, 1]","B",480,479,368,367,101,256,255,0,176,175,34,"reward",34
"96",1,3,464,463,304,303,320,319,"non",2612,2256,265,265,"[4, 3, 1, 4, 2, 3, 1, 2]","[4, 3, 1, 4, 2, 3, 1, 2]","A",208,207,288,287,101,256,255,0,416,415,32,"reward",32
"97",0,3,256,255,288,287,480,479,"non",2542,2576,240,240,"[4, 3, 1, 4, 2, 3, 1, 2]","[4, 3, 1, 4, 2, 3, 1, 2]","A",256,255,560,560,101,208,207,1,528,527,33,"reward",33
"98",1,3,384,383,240,239,256,255,"non",2542,2128,269,269,"[1, 4, 2, 3, 1, 3, 4, 2]","[1, 4, 2, 3, 1, 3, 4, 2]","C",304,303,480,479,101,240,240,0,224,223,31,"reward",31
"99",0,3,NA,NA,544,543,224,223,"non",2508,1472,280,280,"[1, 4, 2, 3, 1, 4]","[1, 4, 2, 3, 1, 3, 4, 2]","C",NA,NA,NA,223,101,304,304,0,176,175,32,"reward",32
"100",0,3,NA,NA,272,271,240,239,"non",2508,1360,269,269,"[1, 4, 2, 3, 1, 4]","[1, 4, 2, 3, 1, 3, 4, 2]","C",NA,NA,NA,303,101,384,384,0,160,159,33,"reward",33
"101",0,3,NA,NA,352,352,224,223,"non",2508,1808,287,287,"[3, 2, 4, 1, 2, 4, 2]","[3, 2, 4, 1, 2, 4, 3, 1]","B",NA,255,368,367,101,384,383,0,224,223,35,"reward",35
"102",0,3,304,303,352,351,336,335,"non",2508,2416,258,258,"[1, 4, 2, 3, 1, 3, 4, 2]","[1, 4, 2, 3, 1, 3, 4, 2]","C",432,431,512,511,101,256,255,1,224,223,34,"reward",34
"103",0,3,368,368,256,255,272,271,"non",2508,2368,302,302,"[4, 3, 1, 4, 2, 3, 1, 2]","[4, 3, 1, 4, 2, 3, 1, 2]","A",304,303,272,271,101,576,575,1,320,319,34,"reward",34
"104",0,3,592,591,272,271,240,239,"non",2508,2544,315,315,"[1, 4, 2, 3, 1, 3, 4, 2]","[1, 4, 2, 3, 1, 3, 4, 2]","C",416,415,576,575,101,272,272,1,176,175,35,"reward",35
"105",0,3,NA,NA,NA,NA,NA,NA,"non",2508,64,238,238,"[4, 1]","[4, 3, 1, 4, 2, 3, 1, 2]","A",NA,NA,NA,NA,101,NA,NA,0,NA,63,35,"reward",35
"106",1,3,240,239,352,352,224,223,"non",2508,2256,123,123,"[1, 4, 2, 3, 1, 3, 4, 2]","[1, 4, 2, 3, 1, 3, 4, 2]","C",400,400,480,479,101,400,400,0,160,159,36,"reward",36
"107",0,3,NA,NA,448,447,160,159,"non",2496,1712,299,299,"[3, 2, 4, 1, 2, 4, 2]","[3, 2, 4, 1, 2, 4, 3, 1]","B",NA,207,544,543,101,192,191,0,160,159,36,"reward",36
"108",0,3,352,351,352,351,432,431,"non",2496,2384,256,256,"[4, 3, 1, 4, 2, 3, 1, 2]","[4, 3, 1, 4, 2, 3, 1, 2]","A",432,431,272,271,101,432,431,1,112,111,36,"reward",36
"109",0,4,NA,223,304,303,208,207,"non",2496,1888,242,242,"[3, 2, 4, 1, 2, 4, 3, 2]","[3, 2, 4, 1, 2, 4, 3, 1]","B",304,304,448,448,101,288,287,0,112,111,37,"reward",37
"110",0,4,NA,NA,NA,NA,NA,NA,"non",2496,0,NA,256,"[2]","[3, 2, 4, 1, 2, 4, 3, 1]","B",NA,NA,NA,NA,101,NA,NA,0,NA,NA,38,"reward",38
"111",0,4,NA,NA,416,415,192,191,"non",2496,1648,319,319,"[3, 2, 4, 1, 2, 4, 2]","[3, 2, 4, 1, 2, 4, 3, 1]","B",NA,319,352,351,101,288,287,0,80,79,39,"reward",39
"112",0,4,272,271,272,271,304,303,"non",2496,2560,317,317,"[1, 4, 2, 3, 1, 3, 4, 2]","[1, 4, 2, 3, 1, 3, 4, 2]","C",416,415,528,527,101,320,319,1,448,448,37,"reward",37
"113",0,4,304,303,336,335,368,367,"non",2496,2336,255,255,"[4, 3, 1, 4, 2, 3, 1, 2]","[4, 3, 1, 4, 2, 3, 1, 2]","A",496,495,288,287,101,448,447,1,96,95,37,"reward",37
"114",1,4,304,303,336,335,368,367,"non",2496,2160,185,185,"[4, 3, 1, 4, 2, 3, 1, 2]","[4, 3, 1, 4, 2, 3, 1, 2]","A",368,367,256,255,101,400,399,0,128,127,38,"reward",38
"115",0,4,320,319,368,367,240,239,"non",2495,2352,330,330,"[1, 4, 2, 3, 1, 3, 4, 2]","[1, 4, 2, 3, 1, 3, 4, 2]","C",416,415,496,495,101,368,368,1,144,143,38,"reward",38
"116",1,4,160,159,384,383,224,223,"non",2495,2112,300,300,"[3, 2, 4, 1, 2, 4, 3, 1]","[3, 2, 4, 1, 2, 4, 3, 1]","B",480,479,512,511,101,320,319,0,32,31,40,"reward",40
"117",0,4,288,287,416,415,288,287,"non",2479,2480,259,259,"[1, 4, 2, 3, 1, 3, 4, 2]","[1, 4, 2, 3, 1, 3, 4, 2]","C",432,431,512,511,101,480,479,1,64,63,39,"reward",39
"118",1,4,224,224,624,623,160,159,"non",2479,2016,275,275,"[3, 2, 4, 1, 2, 4, 3, 1]","[3, 2, 4, 1, 2, 4, 3, 1]","B",368,367,352,351,101,208,207,0,80,79,41,"reward",41
"119",0,4,NA,NA,NA,NA,NA,NA,"non",2431,0,NA,294,"[2]","[3, 2, 4, 1, 2, 4, 3, 1]","B",NA,NA,NA,NA,101,NA,NA,0,NA,NA,42,"reward",42
"120",0,4,NA,NA,NA,NA,NA,NA,"non",2431,368,330,330,"[4, 3, 2]","[4, 3, 1, 4, 2, 3, 1, 2]","A",NA,NA,NA,NA,101,NA,207,0,160,159,39,"reward",39
"121",0,4,240,239,368,367,400,399,"non",2431,2480,281,281,"[1, 4, 2, 3, 1, 3, 4, 2]","[1, 4, 2, 3, 1, 3, 4, 2]","C",432,431,416,416,101,496,495,1,128,127,40,"reward",40
"122",1,4,208,208,512,511,240,239,"non",2431,1872,285,285,"[3, 2, 4, 1, 2, 4, 3, 1]","[3, 2, 4, 1, 2, 4, 3, 1]","B",288,287,288,287,101,224,223,0,112,111,43,"reward",43
"123",0,4,320,319,304,303,400,399,"non",2431,2496,293,293,"[1, 4, 2, 3, 1, 3, 4, 2]","[1, 4, 2, 3, 1, 3, 4, 2]","C",400,399,560,559,101,352,352,1,160,159,41,"reward",41
"124",0,4,496,496,400,399,464,463,"non",2431,2656,319,319,"[4, 3, 1, 4, 2, 3, 1, 2]","[4, 3, 1, 4, 2, 3, 1, 2]","A",304,303,256,255,101,368,367,1,368,367,40,"reward",40
"125",0,4,384,383,352,351,384,383,"non",2431,2176,283,283,"[4, 3, 1, 4, 2, 3, 1, 2]","[4, 3, 1, 4, 2, 3, 1, 2]","A",272,271,256,255,101,272,271,1,256,255,41,"reward",41
"126",1,4,272,271,320,319,384,383,"non",2431,1760,300,300,"[4, 3, 1, 4, 2, 3, 1, 2]","[4, 3, 1, 4, 2, 3, 1, 2]","A",192,191,256,255,101,160,160,0,176,175,42,"reward",42
"127",0,4,368,367,240,239,272,271,"non",2416,2256,312,312,"[1, 4, 2, 3, 1, 3, 4, 2]","[1, 4, 2, 3, 1, 3, 4, 2]","C",448,447,512,511,101,208,207,1,208,207,42,"reward",42
"128",0,4,176,175,272,272,256,256,"non",2416,2304,270,270,"[1, 4, 2, 3, 1, 3, 4, 2]","[1, 4, 2, 3, 1, 3, 4, 2]","C",416,415,784,783,101,208,207,1,192,191,43,"reward",43
"129",0,4,NA,NA,432,431,176,175,"non",2416,1776,251,251,"[3, 2, 4, 1, 2, 4, 2]","[3, 2, 4, 1, 2, 4, 3, 1]","B",NA,239,496,495,101,224,224,0,208,207,44,"reward",44
"130",0,4,288,287,304,303,304,303,"non",2416,2608,253,253,"[4, 3, 1, 4, 2, 3, 1, 2]","[4, 3, 1, 4, 2, 3, 1, 2]","A",352,351,288,287,101,560,559,1,512,511,43,"reward",43
"131",0,4,224,224,288,287,240,239,"non",2416,2576,230,230,"[1, 4, 2, 3, 1, 3, 4, 2]","[1, 4, 2, 3, 1, 3, 4, 2]","C",688,687,688,687,101,288,288,1,160,159,44,"reward",44
"132",1,4,192,191,272,271,288,287,"non",2416,2144,252,252,"[1, 4, 2, 3, 1, 3, 4, 2]","[1, 4, 2, 3, 1, 3, 4, 2]","C",448,447,416,415,101,336,335,0,192,191,45,"reward",45
"133",0,4,272,272,320,319,240,239,"non",2415,2064,356,356,"[4, 3, 1, 4, 2, 3, 1, 2]","[4, 3, 1, 4, 2, 3, 1, 2]","A",304,303,256,255,101,496,495,1,176,175,44,"reward",44
"134",1,4,160,159,384,383,176,176,"non",2415,2096,305,305,"[3, 2, 4, 1, 2, 4, 3, 1]","[3, 2, 4, 1, 2, 4, 3, 1]","B",432,431,528,527,101,256,256,0,160,159,45,"reward",45
"135",0,4,336,335,240,239,432,431,"non",2399,2928,283,283,"[1, 4, 2, 3, 1, 3, 4, 2]","[1, 4, 2, 3, 1, 3, 4, 2]","C",512,511,480,480,101,448,447,1,480,479,46,"reward",46
"136",1,4,352,351,336,335,368,368,"non",2399,2048,298,298,"[4, 3, 1, 4, 2, 3, 1, 2]","[4, 3, 1, 4, 2, 3, 1, 2]","A",384,384,272,271,101,192,192,0,144,143,45,"reward",45
"137",1,4,192,191,224,223,176,175,"non",2384,1888,215,215,"[3, 2, 4, 1, 2, 4, 3, 1]","[3, 2, 4, 1, 2, 4, 3, 1]","B",528,528,496,495,101,144,143,0,128,127,46,"reward",46
"138",0,4,256,255,224,223,384,383,"non",2383,2208,314,314,"[1, 4, 2, 3, 1, 3, 4, 2]","[1, 4, 2, 3, 1, 3, 4, 2]","C",464,463,384,383,101,336,336,1,160,159,47,"reward",47
"139",0,4,NA,NA,NA,NA,NA,NA,"non",2383,304,235,235,"[4, 2]","[4, 3, 1, 4, 2, 3, 1, 2]","A",NA,NA,NA,NA,101,NA,NA,0,NA,303,46,"reward",46
"140",1,4,272,271,336,335,320,319,"non",2383,1904,225,225,"[4, 3, 1, 4, 2, 3, 1, 2]","[4, 3, 1, 4, 2, 3, 1, 2]","A",256,255,240,239,101,288,287,0,192,191,47,"reward",47
"141",1,4,208,207,464,463,176,175,"non",2381,2000,275,275,"[3, 2, 4, 1, 2, 4, 3, 1]","[3, 2, 4, 1, 2, 4, 3, 1]","B",432,431,320,319,101,240,239,0,160,159,47,"reward",47
"142",0,4,240,239,864,863,176,176,"non",2381,2384,250,250,"[3, 2, 4, 1, 2, 4, 3, 1]","[3, 2, 4, 1, 2, 4, 3, 1]","B",368,367,448,447,101,144,143,1,144,143,48,"reward",48
"143",0,4,272,271,272,271,208,207,"non",2381,2128,281,281,"[1, 4, 2, 3, 1, 3, 4, 2]","[1, 4, 2, 3, 1, 3, 4, 2]","C",416,415,480,479,101,304,303,1,176,175,48,"reward",48
"144",0,4,NA,NA,NA,NA,NA,NA,"non",2381,0,NA,250,"[3]","[4, 3, 1, 4, 2, 3, 1, 2]","A",NA,NA,NA,NA,101,NA,NA,0,NA,NA,48,"reward",48
"145",0,5,416,415,288,288,224,223,"non",2381,2112,306,306,"[4, 3, 1, 4, 2, 3, 1, 2]","[4, 3, 1, 4, 2, 3, 1, 2]","A",192,192,208,208,101,400,399,1,384,383,49,"reward",49
"146",0,5,NA,NA,240,240,192,192,"non",2381,1072,281,281,"[1, 4, 2, 3, 1, 2]","[1, 4, 2, 3, 1, 3, 4, 2]","C",NA,NA,NA,287,101,192,191,0,160,160,49,"reward",49
"147",1,5,288,287,304,303,304,303,"non",2381,1680,283,283,"[4, 3, 1, 4, 2, 3, 1, 2]","[4, 3, 1, 4, 2, 3, 1, 2]","A",256,256,192,192,101,192,192,0,144,143,50,"reward",50
"148",1,5,272,271,256,256,192,191,"non",2368,2096,202,202,"[1, 4, 2, 3, 1, 3, 4, 2]","[1, 4, 2, 3, 1, 3, 4, 2]","C",448,447,512,511,101,256,255,0,160,159,50,"reward",50
"149",0,5,NA,NA,NA,287,528,527,"non",2368,1216,252,252,"[1, 4, 2, 3, 2]","[1, 4, 2, 3, 1, 3, 4, 2]","C",NA,NA,NA,NA,101,224,224,0,176,175,51,"reward",51
"150",0,5,NA,NA,256,256,224,224,"non",2368,1200,219,219,"[1, 4, 2, 3, 1, 4]","[1, 4, 2, 3, 1, 3, 4, 2]","C",NA,NA,NA,319,101,224,223,0,176,175,52,"reward",52
"151",0,5,304,303,304,303,208,207,"non",2368,2112,308,308,"[4, 3, 1, 4, 2, 3, 1, 2]","[4, 3, 1, 4, 2, 3, 1, 2]","A",256,255,192,191,101,480,479,1,368,367,51,"reward",51
"152",0,5,NA,NA,NA,NA,NA,NA,"non",2368,288,223,223,"[4, 2]","[4, 3, 1, 4, 2, 3, 1, 2]","A",NA,NA,NA,NA,101,NA,NA,0,NA,287,52,"reward",52
"153",0,5,336,335,400,400,240,239,"non",2368,2208,354,354,"[4, 3, 1, 4, 2, 3, 1, 2]","[4, 3, 1, 4, 2, 3, 1, 2]","A",384,384,256,255,101,384,383,1,208,207,53,"reward",53
"154",0,5,NA,239,400,400,192,191,"non",2368,1936,261,261,"[3, 2, 4, 1, 2, 4, 3, 2]","[3, 2, 4, 1, 2, 4, 3, 1]","B",432,431,320,319,101,192,191,0,160,160,49,"reward",49
"155",1,5,224,223,272,271,192,192,"non",2368,1840,314,314,"[3, 2, 4, 1, 2, 4, 3, 1]","[3, 2, 4, 1, 2, 4, 3, 1]","B",432,431,384,383,101,176,175,0,160,160,50,"reward",50
"156",0,5,208,207,352,351,224,223,"non",2368,2352,233,233,"[1, 4, 2, 3, 1, 3, 4, 2]","[1, 4, 2, 3, 1, 3, 4, 2]","C",528,527,512,512,101,256,255,1,272,271,53,"reward",53
"157",1,5,256,255,512,512,160,160,"non",2368,1920,344,344,"[3, 2, 4, 1, 2, 4, 3, 1]","[3, 2, 4, 1, 2, 4, 3, 1]","B",320,319,320,320,101,208,207,0,144,143,51,"reward",51
"158",1,5,192,192,496,495,192,191,"non",2323,1872,263,263,"[3, 2, 4, 1, 2, 4, 3, 1]","[3, 2, 4, 1, 2, 4, 3, 1]","B",416,415,272,271,101,160,159,0,144,143,52,"reward",52
"159",0,5,400,399,464,464,240,239,"non",2288,2848,286,286,"[4, 3, 1, 4, 2, 3, 1, 2]","[4, 3, 1, 4, 2, 3, 1, 2]","A",544,543,560,559,101,480,479,1,160,159,54,"reward",54
"160",1,5,176,175,384,384,160,160,"non",2288,1744,248,248,"[3, 2, 4, 1, 2, 4, 3, 1]","[3, 2, 4, 1, 2, 4, 3, 1]","B",384,383,304,303,101,224,223,0,112,112,53,"reward",53
"161",0,5,NA,NA,288,288,160,159,"non",2269,1424,246,246,"[3, 2, 4, 1, 2, 4, 2]","[3, 2, 4, 1, 2, 4, 3, 1]","B",NA,223,384,384,101,272,271,0,96,95,54,"reward",54
"162",0,5,NA,NA,NA,NA,NA,NA,"non",2269,288,240,240,"[4, 2]","[4, 3, 1, 4, 2, 3, 1, 2]","A",NA,NA,NA,NA,101,NA,NA,0,NA,287,55,"reward",55
"163",0,5,192,191,304,304,192,192,"non",2269,2144,188,188,"[1, 4, 2, 3, 1, 3, 4, 2]","[1, 4, 2, 3, 1, 3, 4, 2]","C",384,383,496,495,101,416,415,1,160,159,54,"reward",54
"164",0,5,NA,NA,NA,NA,NA,303,"non",2269,608,265,265,"[4, 3, 1, 3]","[4, 3, 1, 4, 2, 3, 1, 2]","A",NA,NA,NA,NA,101,176,175,0,128,127,56,"reward",56
"165",1,5,224,223,608,607,208,207,"non",2269,1984,43,43,"[3, 2, 4, 1, 2, 4, 3, 1]","[3, 2, 4, 1, 2, 4, 3, 1]","B",304,303,208,207,101,144,143,0,288,287,55,"reward",55
"166",0,5,NA,NA,416,416,224,224,"non",2253,1712,317,317,"[4, 3, 1, 4, 2, 3, 2]","[4, 3, 1, 4, 2, 3, 1, 2]","A",NA,415,272,271,101,176,176,0,208,207,57,"reward",57
"167",1,5,128,127,272,271,192,191,"non",2253,1712,418,418,"[3, 2, 4, 1, 2, 4, 3, 1]","[3, 2, 4, 1, 2, 4, 3, 1]","B",448,448,336,335,101,144,143,0,192,191,56,"reward",56
"168",1,5,256,255,272,272,304,303,"non",2195,1648,458,458,"[4, 3, 1, 4, 2, 3, 1, 2]","[4, 3, 1, 4, 2, 3, 1, 2]","A",208,208,208,207,101,240,240,0,160,159,58,"reward",58
"169",0,5,256,255,224,223,272,272,"non",2179,2192,355,355,"[1, 4, 2, 3, 1, 3, 4, 2]","[1, 4, 2, 3, 1, 3, 4, 2]","C",448,447,512,511,101,224,224,1,256,255,55,"reward",55
"170",1,5,272,271,256,255,208,208,"non",2179,1440,321,321,"[4, 3, 1, 4, 2, 3, 1, 2]","[4, 3, 1, 4, 2, 3, 1, 2]","A",176,175,224,223,101,160,159,0,144,143,59,"reward",59
"171",0,5,NA,NA,224,223,224,223,"non",2171,1088,467,467,"[1, 4, 2, 3, 1, 2]","[1, 4, 2, 3, 1, 3, 4, 2]","C",NA,NA,NA,287,101,176,175,0,176,175,56,"reward",56
"172",0,5,128,127,224,223,176,175,"non",2171,2288,395,395,"[1, 4, 2, 3, 1, 3, 4, 2]","[1, 4, 2, 3, 1, 3, 4, 2]","C",752,751,624,623,101,192,191,1,192,191,57,"reward",57
"173",0,5,NA,NA,192,191,176,175,"non",2171,1392,280,280,"[3, 2, 4, 1, 2, 4, 2]","[3, 2, 4, 1, 2, 4, 3, 1]","B",NA,239,480,479,101,176,176,0,128,127,57,"reward",57
"174",0,5,208,207,592,591,176,176,"non",2171,2048,265,265,"[3, 2, 4, 1, 2, 4, 3, 1]","[3, 2, 4, 1, 2, 4, 3, 1]","B",320,319,448,447,101,160,160,1,144,143,58,"reward",58
"175",0,5,NA,NA,NA,NA,NA,NA,"non",2171,256,280,280,"[4, 2]","[4, 3, 1, 4, 2, 3, 1, 2]","A",NA,NA,NA,NA,101,NA,NA,0,NA,255,60,"reward",60
"176",1,5,176,175,432,431,208,207,"non",2171,1760,269,269,"[3, 2, 4, 1, 2, 4, 3, 1]","[3, 2, 4, 1, 2, 4, 3, 1]","B",304,303,256,255,101,192,192,0,192,191,59,"reward",59
"177",0,5,112,111,288,287,336,336,"non",2147,2096,263,263,"[1, 4, 2, 3, 1, 3, 4, 2]","[1, 4, 2, 3, 1, 3, 4, 2]","C",448,447,480,479,101,224,223,1,208,207,58,"reward",58
"178",1,5,256,255,256,255,176,175,"non",2147,1920,222,222,"[1, 4, 2, 3, 1, 3, 4, 2]","[1, 4, 2, 3, 1, 3, 4, 2]","C",480,480,416,416,101,224,223,0,112,111,59,"reward",59
"179",0,5,192,191,320,319,208,207,"non",2147,2256,291,291,"[1, 4, 2, 3, 1, 3, 4, 2]","[1, 4, 2, 3, 1, 3, 4, 2]","C",464,463,400,399,101,512,512,1,160,159,60,"reward",60
"180",1,5,224,223,400,399,176,175,"non",2147,1728,250,250,"[3, 2, 4, 1, 2, 4, 3, 1]","[3, 2, 4, 1, 2, 4, 3, 1]","B",384,383,256,255,101,160,160,0,128,127,60,"reward",60
"181",0,6,272,272,272,272,208,207,"non",2141,2016,403,403,"[1, 4, 2, 3, 1, 3, 4, 2]","[1, 4, 2, 3, 1, 3, 4, 2]","C",272,271,512,512,101,240,240,1,240,239,61,"reward",61
"182",0,6,NA,NA,320,320,272,271,"non",2141,1456,123,123,"[1, 4, 2, 3, 1, 3, 2]","[1, 4, 2, 3, 1, 3, 4, 2]","C",NA,191,384,383,101,144,143,0,144,143,62,"reward",62
"183",0,6,NA,NA,240,239,224,223,"non",2141,1056,200,200,"[1, 4, 2, 3, 1, 4]","[1, 4, 2, 3, 1, 3, 4, 2]","C",NA,NA,NA,239,101,224,223,0,128,127,63,"reward",63
"184",0,6,NA,NA,464,464,352,351,"non",2141,1888,379,379,"[1, 4, 2, 3, 1, 4]","[1, 4, 2, 3, 1, 3, 4, 2]","C",NA,NA,NA,351,101,528,528,0,192,191,64,"reward",64
"185",0,6,464,463,288,287,176,176,"non",2141,2208,361,361,"[4, 3, 1, 4, 2, 3, 1, 2]","[4, 3, 1, 4, 2, 3, 1, 2]","A",224,224,208,207,101,448,447,1,400,399,61,"reward",61
"186",0,6,NA,NA,272,271,288,287,"non",2141,2016,274,274,"[1, 4, 2, 3, 1, 3, 3]","[1, 4, 2, 3, 1, 3, 4, 2]","C",NA,480,336,335,101,432,431,0,208,207,65,"reward",65
"187",1,6,176,175,208,208,176,175,"non",2141,1840,297,297,"[3, 2, 4, 1, 2, 4, 3, 1]","[3, 2, 4, 1, 2, 4, 3, 1]","B",384,383,576,575,101,160,159,0,160,159,61,"reward",61
"188",1,6,256,255,304,304,208,207,"non",2141,1664,324,324,"[4, 3, 1, 4, 2, 3, 1, 2]","[4, 3, 1, 4, 2, 3, 1, 2]","A",336,335,240,239,101,176,176,0,144,143,62,"reward",62
"189",1,6,320,320,288,288,512,512,"non",2115,1824,259,259,"[4, 3, 1, 4, 2, 3, 1, 2]","[4, 3, 1, 4, 2, 3, 1, 2]","A",176,176,208,208,101,176,175,0,144,143,63,"reward",63
"190",1,6,144,143,208,207,192,191,"non",2109,1792,304,304,"[3, 2, 4, 1, 2, 4, 3, 1]","[3, 2, 4, 1, 2, 4, 3, 1]","B",448,447,480,479,101,208,207,0,112,111,62,"reward",62
"191",0,6,272,271,256,255,304,304,"non",2093,2224,389,389,"[4, 3, 1, 4, 2, 3, 1, 2]","[4, 3, 1, 4, 2, 3, 1, 2]","A",192,191,528,527,101,176,175,1,496,495,64,"reward",64
"192",1,6,192,191,208,207,208,208,"non",2093,1648,157,157,"[3, 2, 4, 1, 2, 4, 3, 1]","[3, 2, 4, 1, 2, 4, 3, 1]","B",336,335,384,383,101,144,144,0,176,175,63,"reward",63
"193",1,6,304,304,288,288,160,160,"non",2061,1472,344,344,"[4, 3, 1, 4, 2, 3, 1, 2]","[4, 3, 1, 4, 2, 3, 1, 2]","A",224,223,208,207,101,192,191,0,96,95,65,"reward",65
"194",0,6,496,496,224,224,192,191,"non",2035,1904,171,171,"[3, 2, 4, 1, 2, 4, 3, 1]","[3, 2, 4, 1, 2, 4, 3, 1]","B",336,335,384,384,101,96,96,1,176,175,64,"reward",64
"195",0,6,NA,NA,NA,NA,NA,NA,"non",2035,0,NA,391,"[3]","[4, 3, 1, 4, 2, 3, 1, 2]","A",NA,NA,NA,NA,101,NA,NA,0,NA,NA,66,"reward",66
"196",1,6,192,191,208,207,160,159,"non",2035,1488,214,214,"[3, 2, 4, 1, 2, 4, 3, 1]","[3, 2, 4, 1, 2, 4, 3, 1]","B",272,271,416,416,101,128,127,0,112,111,65,"reward",65
"197",1,6,192,191,240,240,192,192,"non",2013,1712,298,298,"[3, 2, 4, 1, 2, 4, 3, 1]","[3, 2, 4, 1, 2, 4, 3, 1]","B",304,303,448,447,101,144,143,0,192,191,66,"reward",66
"198",0,6,NA,NA,256,255,320,319,"non",2013,1488,70,70,"[1, 4, 2, 3, 1, 4]","[1, 4, 2, 3, 1, 3, 4, 2]","C",NA,NA,NA,303,101,336,335,0,272,271,66,"reward",66
"199",1,6,288,288,320,319,128,128,"non",2013,1584,318,318,"[4, 3, 1, 4, 2, 3, 1, 2]","[4, 3, 1, 4, 2, 3, 1, 2]","A",256,256,272,271,101,160,160,0,160,159,67,"reward",67
"200",0,6,368,367,240,239,240,239,"non",2025,2224,72,72,"[1, 4, 2, 3, 1, 3, 4, 2]","[1, 4, 2, 3, 1, 3, 4, 2]","C",400,399,480,480,101,256,256,1,240,239,67,"reward",67
"201",0,6,560,560,288,288,176,175,"non",2025,1840,301,301,"[4, 3, 1, 4, 2, 3, 1, 2]","[4, 3, 1, 4, 2, 3, 1, 2]","A",288,287,224,223,101,176,175,1,128,127,68,"reward",68
"202",1,6,176,175,288,287,176,175,"non",2025,1360,204,204,"[4, 3, 1, 4, 2, 3, 1, 2]","[4, 3, 1, 4, 2, 3, 1, 2]","A",144,144,240,239,101,160,159,0,176,175,69,"reward",69
"203",0,6,NA,NA,256,255,176,175,"non",1981,976,200,200,"[1, 4, 2, 3, 1, 2]","[1, 4, 2, 3, 1, 3, 4, 2]","C",NA,NA,NA,240,101,208,207,0,96,95,68,"reward",68
"204",1,6,176,175,208,207,320,319,"non",1981,1360,133,133,"[4, 3, 1, 4, 2, 3, 1, 2]","[4, 3, 1, 4, 2, 3, 1, 2]","A",160,159,176,176,101,176,175,0,144,143,70,"reward",70
"205",0,6,NA,NA,176,175,176,176,"non",1975,1232,182,182,"[3, 2, 4, 1, 2, 4, 2]","[3, 2, 4, 1, 2, 4, 3, 1]","B",NA,191,448,448,101,128,127,0,112,111,67,"reward",67
"206",0,6,NA,NA,368,368,208,207,"non",1975,2176,86,86,"[1, 4, 2, 3, 1, 3, 2]","[1, 4, 2, 3, 1, 3, 4, 2]","C",NA,176,640,639,101,592,591,0,192,192,69,"reward",69
"207",1,6,160,159,224,224,176,176,"non",1975,1680,103,103,"[3, 2, 4, 1, 2, 4, 3, 1]","[3, 2, 4, 1, 2, 4, 3, 1]","B",352,351,400,400,101,160,159,0,208,207,68,"reward",68
"208",0,6,176,175,512,512,160,160,"non",1939,1696,308,308,"[3, 2, 4, 1, 2, 4, 3, 1]","[3, 2, 4, 1, 2, 4, 3, 1]","B",352,351,224,223,101,128,127,1,144,144,69,"reward",69
"209",0,6,256,255,272,271,224,223,"non",1939,2224,296,296,"[1, 4, 2, 3, 1, 3, 4, 2]","[1, 4, 2, 3, 1, 3, 4, 2]","C",384,383,464,464,101,448,447,1,176,175,70,"reward",70
"210",1,6,160,159,256,256,224,223,"non",1939,1280,294,294,"[4, 3, 1, 4, 2, 3, 1, 2]","[4, 3, 1, 4, 2, 3, 1, 2]","A",192,191,192,191,101,192,192,0,64,63,71,"reward",71
"211",1,6,160,159,192,192,160,159,"non",1933,1392,245,245,"[3, 2, 4, 1, 2, 4, 3, 1]","[3, 2, 4, 1, 2, 4, 3, 1]","B",320,319,368,368,101,96,95,0,96,95,70,"reward",70
"212",0,6,NA,NA,400,399,368,367,"non",1917,1520,248,248,"[1, 4, 2, 3, 1, 2]","[1, 4, 2, 3, 1, 3, 4, 2]","C",NA,NA,NA,431,101,208,207,0,112,111,71,"reward",71
"213",0,6,NA,NA,NA,NA,NA,NA,"non",1917,336,196,196,"[1, 4, 1]","[1, 4, 2, 3, 1, 3, 4, 2]","C",NA,NA,NA,NA,101,NA,175,0,160,159,72,"reward",72
"214",0,6,NA,NA,192,192,160,159,"non",1917,1488,325,325,"[3, 2, 4, 1, 2, 4, 2]","[3, 2, 4, 1, 2, 4, 3, 1]","B",NA,336,512,512,101,176,175,0,112,111,71,"reward",71
"215",1,6,432,431,352,352,160,160,"non",1917,1584,298,298,"[4, 3, 1, 4, 2, 3, 1, 2]","[4, 3, 1, 4, 2, 3, 1, 2]","A",176,176,224,224,101,160,159,0,80,79,72,"reward",72
"216",1,6,160,160,208,207,176,175,"non",1917,1616,274,274,"[3, 2, 4, 1, 2, 4, 3, 1]","[3, 2, 4, 1, 2, 4, 3, 1]","B",448,447,416,415,101,96,95,0,112,111,72,"reward",72
"217",0,7,256,255,256,255,256,255,"non",1885,2000,306,306,"[1, 4, 2, 3, 1, 3, 4, 2]","[1, 4, 2, 3, 1, 3, 4, 2]","C",464,463,320,319,101,320,319,1,128,127,73,"reward",73
"218",1,7,160,159,272,271,144,143,"non",1885,1232,311,311,"[4, 3, 1, 4, 2, 3, 1, 2]","[4, 3, 1, 4, 2, 3, 1, 2]","A",240,240,176,175,101,160,159,0,80,79,73,"reward",73
"219",1,7,400,399,256,255,176,176,"non",1885,1440,327,327,"[4, 3, 1, 4, 2, 3, 1, 2]","[4, 3, 1, 4, 2, 3, 1, 2]","A",256,255,128,127,101,144,143,0,80,79,74,"reward",74
"220",0,7,NA,NA,160,159,144,143,"non",1858,656,276,276,"[3, 2, 4, 1, 2, 3]","[3, 2, 4, 1, 2, 4, 3, 1]","B",NA,NA,NA,175,101,112,111,0,64,63,73,"reward",73
"221",0,7,208,208,160,159,128,127,"non",1858,1664,315,315,"[3, 2, 4, 1, 2, 4, 3, 1]","[3, 2, 4, 1, 2, 4, 3, 1]","B",368,367,576,575,101,144,143,1,80,79,74,"reward",74
"222",1,7,144,143,224,224,208,207,"non",1858,1184,249,249,"[4, 3, 1, 4, 2, 3, 1, 2]","[4, 3, 1, 4, 2, 3, 1, 2]","A",176,175,208,207,101,128,127,0,96,95,75,"reward",75
"223",1,7,160,160,208,207,144,144,"non",1858,1232,263,263,"[4, 3, 1, 4, 2, 3, 1, 2]","[4, 3, 1, 4, 2, 3, 1, 2]","A",208,207,160,159,101,208,207,0,144,143,76,"reward",76
"224",0,7,NA,NA,256,255,160,160,"non",1762,1136,284,284,"[1, 4, 2, 3, 1, 2]","[1, 4, 2, 3, 1, 3, 4, 2]","C",NA,NA,NA,144,101,256,256,0,320,319,74,"reward",74
"225",0,7,320,319,192,191,160,159,"non",1762,1552,310,310,"[4, 3, 1, 4, 2, 3, 1, 2]","[4, 3, 1, 4, 2, 3, 1, 2]","A",224,224,128,128,101,288,287,1,240,239,77,"reward",77
"226",0,7,NA,NA,NA,NA,NA,NA,"non",1762,0,NA,56,"[2]","[3, 2, 4, 1, 2, 4, 3, 1]","B",NA,NA,NA,NA,101,NA,NA,0,NA,NA,75,"reward",75
"227",0,7,192,191,128,127,192,192,"non",1762,1680,344,344,"[3, 2, 4, 1, 2, 4, 3, 1]","[3, 2, 4, 1, 2, 4, 3, 1]","B",288,287,576,575,101,160,159,1,144,143,76,"reward",76
"228",0,7,256,255,320,319,128,127,"non",1762,1856,228,228,"[1, 4, 2, 3, 1, 3, 4, 2]","[1, 4, 2, 3, 1, 3, 4, 2]","C",480,479,336,335,101,208,207,1,128,127,75,"reward",75
"229",0,7,NA,NA,NA,239,176,175,"non",1762,720,244,244,"[3, 2, 4, 1, 4]","[3, 2, 4, 1, 2, 4, 3, 1]","B",NA,NA,NA,NA,101,144,143,0,160,159,77,"reward",77
"230",0,7,NA,224,320,320,176,175,"non",1762,1696,289,289,"[3, 2, 4, 1, 2, 4, 3, 2]","[3, 2, 4, 1, 2, 4, 3, 1]","B",368,367,320,319,101,160,159,0,128,127,78,"reward",78
"231",0,7,192,191,256,255,224,223,"non",1762,2272,295,295,"[1, 4, 2, 3, 1, 3, 4, 2]","[1, 4, 2, 3, 1, 3, 4, 2]","C",400,400,464,463,101,288,287,1,448,447,76,"reward",76
"232",0,7,NA,NA,NA,NA,NA,NA,"non",1762,336,259,259,"[1, 4, 1]","[1, 4, 2, 3, 1, 3, 4, 2]","C",NA,NA,NA,NA,101,NA,159,0,176,175,77,"reward",77
"233",0,7,NA,NA,448,447,240,239,"non",1762,1792,324,324,"[1, 4, 2, 3, 1, 2]","[1, 4, 2, 3, 1, 3, 4, 2]","C",NA,NA,NA,639,101,224,223,0,240,239,78,"reward",78
"234",0,7,NA,NA,224,223,176,175,"non",1762,1232,460,460,"[3, 2, 4, 1, 2, 4, 2]","[3, 2, 4, 1, 2, 4, 3, 1]","B",NA,272,304,303,101,128,127,0,128,128,79,"reward",79
"235",0,7,NA,207,768,767,160,159,"non",1762,2096,216,216,"[3, 2, 4, 1, 2, 4, 3, 2]","[3, 2, 4, 1, 2, 4, 3, 1]","B",320,319,400,399,101,144,143,0,96,95,80,"reward",80
"236",0,7,NA,NA,NA,NA,NA,NA,"non",1762,352,242,242,"[1, 4, 1]","[1, 4, 2, 3, 1, 3, 4, 2]","C",NA,NA,NA,NA,101,NA,191,0,160,159,79,"reward",79
"237",0,7,208,208,448,448,192,191,"non",1762,1792,227,227,"[3, 2, 4, 1, 2, 4, 3, 1]","[3, 2, 4, 1, 2, 4, 3, 1]","B",400,400,272,271,101,144,143,1,128,127,81,"reward",81
"238",0,7,320,319,288,287,336,335,"non",1762,2096,342,342,"[1, 4, 2, 3, 1, 3, 4, 2]","[1, 4, 2, 3, 1, 3, 4, 2]","C",448,448,304,303,101,208,207,1,192,191,80,"reward",80
"239",0,7,NA,NA,272,271,192,191,"non",1762,1232,264,264,"[1, 4, 2, 3, 1, 2]","[1, 4, 2, 3, 1, 3, 4, 2]","C",NA,NA,NA,479,101,240,239,0,48,47,81,"reward",81
"240",1,7,176,175,272,271,144,143,"non",1762,1184,296,296,"[4, 3, 1, 4, 2, 3, 1, 2]","[4, 3, 1, 4, 2, 3, 1, 2]","A",176,175,192,191,101,160,159,0,64,63,78,"reward",78
"241",0,7,176,176,192,191,320,319,"non",1746,1968,274,274,"[3, 2, 4, 1, 2, 4, 3, 1]","[3, 2, 4, 1, 2, 4, 3, 1]","B",304,303,512,512,101,192,191,1,272,271,82,"reward",82
"242",1,7,128,127,224,223,112,111,"non",1746,1104,253,253,"[4, 3, 1, 4, 2, 3, 1, 2]","[4, 3, 1, 4, 2, 3, 1, 2]","A",224,223,128,128,101,208,207,0,80,79,79,"reward",79
"243",0,7,NA,NA,NA,NA,NA,NA,"non",1703,288,340,340,"[4, 3, 2]","[4, 3, 1, 4, 2, 3, 1, 2]","A",NA,NA,NA,NA,101,NA,143,0,144,144,80,"reward",80
"244",0,7,NA,NA,160,160,192,191,"non",1703,784,249,249,"[3, 2, 4, 1, 2, 3]","[3, 2, 4, 1, 2, 4, 3, 1]","B",NA,NA,NA,192,101,144,143,0,96,95,83,"reward",83
"245",0,7,256,255,224,223,208,207,"non",1703,1856,263,263,"[1, 4, 2, 3, 1, 3, 4, 2]","[1, 4, 2, 3, 1, 3, 4, 2]","C",448,447,368,367,101,192,191,1,160,159,82,"reward",82
"246",0,7,160,160,336,336,224,223,"non",1703,1936,128,128,"[1, 4, 2, 3, 1, 3, 4, 2]","[1, 4, 2, 3, 1, 3, 4, 2]","C",448,448,432,431,101,176,176,1,160,159,83,"reward",83
"247",0,7,176,175,400,399,160,159,"non",1703,1680,265,265,"[3, 2, 4, 1, 2, 4, 3, 1]","[3, 2, 4, 1, 2, 4, 3, 1]","B",448,447,240,239,101,112,111,1,144,143,84,"reward",84
"248",1,7,160,159,336,336,176,176,"non",1703,1360,321,321,"[4, 3, 1, 4, 2, 3, 1, 2]","[4, 3, 1, 4, 2, 3, 1, 2]","A",160,159,224,224,101,192,192,0,112,111,81,"reward",81
"249",0,7,NA,NA,NA,NA,NA,NA,"non",1666,336,336,336,"[4, 3, 2]","[4, 3, 1, 4, 2, 3, 1, 2]","A",NA,NA,NA,NA,101,NA,143,0,192,191,82,"reward",82
"250",0,7,NA,NA,224,223,176,175,"non",1666,1424,305,305,"[1, 4, 2, 3, 1, 3, 2]","[1, 4, 2, 3, 1, 3, 4, 2]","C",NA,207,464,464,101,208,207,0,144,144,84,"reward",84
"251",1,7,192,191,256,255,176,175,"non",1666,1312,273,273,"[4, 3, 1, 4, 2, 3, 1, 2]","[4, 3, 1, 4, 2, 3, 1, 2]","A",176,176,224,223,101,192,191,0,96,95,83,"reward",83
"252",1,7,144,143,240,240,192,191,"non",1633,1200,245,245,"[4, 3, 1, 4, 2, 3, 1, 2]","[4, 3, 1, 4, 2, 3, 1, 2]","A",176,175,192,191,101,128,127,0,128,127,84,"reward",84
"253",1,8,160,159,208,207,272,272,"non",1633,1232,131,131,"[4, 3, 1, 4, 2, 3, 1, 2]","[4, 3, 1, 4, 2, 3, 1, 2]","A",192,191,144,143,101,112,111,0,144,143,85,"reward",85
"254",0,8,NA,160,192,191,176,175,"non",1623,1856,111,111,"[3, 2, 4, 1, 2, 4, 3, 2]","[3, 2, 4, 1, 2, 4, 3, 1]","B",464,463,560,559,101,160,159,0,144,143,85,"reward",85
"255",1,8,128,127,304,303,144,143,"non",1623,1136,197,197,"[4, 3, 1, 4, 2, 3, 1, 2]","[4, 3, 1, 4, 2, 3, 1, 2]","A",160,159,144,143,101,144,143,0,112,111,86,"reward",86
"256",0,8,128,127,416,415,159,159,"non",1575,1536,169,169,"[3, 2, 4, 1, 2, 4, 3, 1]","[3, 2, 4, 1, 2, 4, 3, 1]","B",336,335,240,239,101,129,129,1,128,127,86,"reward",86
"257",0,8,272,272,256,255,192,192,"non",1575,1344,589,589,"[4, 3, 1, 4, 2, 3, 1, 2]","[4, 3, 1, 4, 2, 3, 1, 2]","A",160,159,144,144,101,128,128,1,192,191,87,"reward",87
"258",0,8,272,271,176,175,160,159,"non",1575,1808,295,295,"[1, 4, 2, 3, 1, 3, 4, 2]","[1, 4, 2, 3, 1, 3, 4, 2]","C",560,559,256,255,101,160,160,1,224,223,85,"reward",85
"259",0,8,144,143,192,191,160,159,"non",1575,1504,122,122,"[3, 2, 4, 1, 2, 4, 3, 1]","[3, 2, 4, 1, 2, 4, 3, 1]","B",320,319,400,399,101,112,112,1,176,175,87,"reward",87
"260",0,8,NA,NA,480,479,192,192,"non",1575,1392,277,277,"[4, 3, 1, 4, 2, 2]","[4, 3, 1, 4, 2, 3, 1, 2]","A",NA,NA,NA,544,101,48,47,0,128,127,88,"reward",88
"261",0,8,NA,NA,240,239,128,127,"non",1575,944,291,291,"[1, 4, 2, 3, 1, 2]","[1, 4, 2, 3, 1, 3, 4, 2]","C",NA,NA,NA,208,101,224,223,0,144,143,86,"reward",86
"262",1,8,128,127,272,271,144,143,"non",1575,1136,132,132,"[4, 3, 1, 4, 2, 3, 1, 2]","[4, 3, 1, 4, 2, 3, 1, 2]","A",176,175,160,159,101,144,143,0,112,111,89,"reward",89
"263",0,8,272,271,176,176,176,175,"non",1533,1584,306,306,"[3, 2, 4, 1, 2, 4, 3, 1]","[3, 2, 4, 1, 2, 4, 3, 1]","B",304,304,432,432,101,96,95,1,128,127,88,"reward",88
"264",0,8,NA,NA,224,223,144,143,"non",1533,1024,138,138,"[1, 4, 2, 3, 1, 2]","[1, 4, 2, 3, 1, 3, 4, 2]","C",NA,NA,NA,224,101,256,256,0,176,175,87,"reward",87
"265",0,8,144,143,448,447,144,143,"non",1533,1872,74,74,"[3, 2, 4, 1, 2, 4, 3, 1]","[3, 2, 4, 1, 2, 4, 3, 1]","B",576,576,272,271,101,112,112,1,176,176,89,"reward",89
"266",1,8,144,144,240,239,144,143,"non",1533,1200,281,281,"[4, 3, 1, 4, 2, 3, 1, 2]","[4, 3, 1, 4, 2, 3, 1, 2]","A",192,191,144,143,101,192,191,0,144,143,90,"reward",90
"267",0,8,NA,NA,208,207,128,127,"non",1485,848,146,146,"[1, 4, 2, 3, 1, 2]","[1, 4, 2, 3, 1, 3, 4, 2]","C",NA,NA,NA,175,101,160,159,0,176,175,88,"reward",88
"268",0,8,NA,NA,NA,NA,NA,NA,"non",1485,416,454,454,"[1, 3]","[1, 4, 2, 3, 1, 3, 4, 2]","C",NA,NA,NA,NA,101,NA,NA,0,NA,415,89,"reward",89
"269",0,8,224,223,224,223,336,335,"non",1485,2080,232,232,"[1, 4, 2, 3, 1, 3, 4, 2]","[1, 4, 2, 3, 1, 3, 4, 2]","C",464,463,448,448,101,192,192,1,192,191,90,"reward",90
"270",0,8,144,144,224,223,272,271,"non",1485,1760,279,279,"[4, 3, 1, 4, 2, 3, 1, 2]","[4, 3, 1, 4, 2, 3, 1, 2]","A",176,175,144,143,101,608,607,1,192,191,91,"reward",91
"271",0,8,NA,NA,NA,NA,NA,NA,"non",1485,272,374,374,"[4, 1]","[4, 3, 1, 4, 2, 3, 1, 2]","A",NA,NA,NA,NA,101,NA,NA,0,NA,271,92,"reward",92
"272",1,8,112,111,208,207,128,127,"non",1485,1056,248,248,"[4, 3, 1, 4, 2, 3, 1, 2]","[4, 3, 1, 4, 2, 3, 1, 2]","A",224,224,144,144,101,160,159,0,80,79,93,"reward",93
"273",0,8,NA,NA,144,144,96,96,"non",1485,656,277,277,"[3, 2, 4, 1, 2, 3]","[3, 2, 4, 1, 2, 4, 3, 1]","B",NA,NA,NA,175,101,128,127,0,112,111,90,"reward",90
"274",0,8,144,144,224,223,112,111,"non",1485,1440,384,384,"[4, 3, 1, 4, 2, 3, 1, 2]","[4, 3, 1, 4, 2, 3, 1, 2]","A",176,175,512,511,101,160,159,1,112,111,94,"reward",94
"275",0,8,NA,NA,304,304,176,175,"non",1485,1504,72,72,"[3, 2, 4, 1, 2, 4, 2]","[3, 2, 4, 1, 2, 4, 3, 1]","B",NA,255,320,319,101,128,128,0,320,319,91,"reward",91
"276",0,8,192,191,240,240,240,239,"non",1485,2016,339,339,"[1, 4, 2, 3, 1, 3, 4, 2]","[1, 4, 2, 3, 1, 3, 4, 2]","C",400,399,448,447,101,288,287,1,208,207,91,"reward",91
"277",0,8,160,159,192,191,176,175,"non",1485,1392,258,258,"[3, 2, 4, 1, 2, 4, 3, 1]","[3, 2, 4, 1, 2, 4, 3, 1]","B",336,335,288,287,101,128,127,1,112,111,92,"reward",92
"278",0,8,NA,NA,NA,NA,NA,NA,"non",1485,464,316,316,"[1, 4, 3]","[1, 4, 2, 3, 1, 3, 4, 2]","C",NA,NA,NA,NA,101,NA,303,0,160,159,92,"reward",92
"279",0,8,256,255,192,192,176,175,"non",1485,1920,323,323,"[1, 4, 2, 3, 1, 3, 4, 2]","[1, 4, 2, 3, 1, 3, 4, 2]","C",480,479,416,416,101,240,239,1,160,159,93,"reward",93
"280",0,8,NA,NA,NA,303,128,127,"non",1485,656,262,262,"[3, 2, 4, 1, 4]","[3, 2, 4, 1, 2, 4, 3, 1]","B",NA,NA,NA,NA,101,112,111,0,112,111,93,"reward",93
"281",0,8,464,463,608,608,256,255,"non",1485,2480,374,374,"[3, 2, 4, 1, 2, 4, 3, 1]","[3, 2, 4, 1, 2, 4, 3, 1]","B",384,384,368,367,101,240,239,1,160,159,94,"reward",94
"282",0,8,160,160,192,192,192,192,"non",1485,1776,381,381,"[1, 4, 2, 3, 1, 3, 4, 2]","[1, 4, 2, 3, 1, 3, 4, 2]","C",400,400,464,464,101,208,208,1,160,159,94,"reward",94
"283",0,8,192,191,192,191,112,111,"non",1485,1456,223,223,"[3, 2, 4, 1, 2, 4, 3, 1]","[3, 2, 4, 1, 2, 4, 3, 1]","B",336,335,384,384,101,160,159,1,80,79,95,"reward",95
"284",0,8,160,159,304,303,128,127,"non",1485,1248,325,325,"[4, 3, 1, 4, 2, 3, 1, 2]","[4, 3, 1, 4, 2, 3, 1, 2]","A",160,160,192,191,101,160,159,1,144,143,95,"reward",95
"285",0,8,NA,NA,192,191,160,159,"non",1485,736,243,243,"[1, 4, 2, 3, 1, 2]","[1, 4, 2, 3, 1, 3, 4, 2]","C",NA,NA,NA,144,101,112,111,0,128,127,95,"reward",95
"286",0,8,208,208,176,175,160,160,"non",1485,1552,102,102,"[3, 2, 4, 1, 2, 4, 3, 1]","[3, 2, 4, 1, 2, 4, 3, 1]","B",304,303,448,448,101,112,111,1,144,143,96,"reward",96
"287",1,8,144,144,288,287,112,112,"non",1485,1104,284,284,"[4, 3, 1, 4, 2, 3, 1, 2]","[4, 3, 1, 4, 2, 3, 1, 2]","A",176,175,160,159,101,160,159,0,64,63,96,"reward",96
"288",0,8,160,159,224,223,144,143,"non",1495,1632,245,245,"[1, 4, 2, 3, 1, 3, 4, 2]","[1, 4, 2, 3, 1, 3, 4, 2]","C",384,384,432,431,101,112,111,1,176,175,96,"reward",96
"289",0,9,NA,NA,368,367,192,191,"non",1495,1168,178,178,"[1, 4, 2, 3, 1, 4]","[1, 4, 2, 3, 1, 3, 4, 2]","C",NA,NA,NA,287,101,144,143,0,176,175,97,"reward",97
"290",0,9,240,240,256,255,112,111,"non",1495,1584,68,68,"[3, 2, 4, 1, 2, 4, 3, 1]","[3, 2, 4, 1, 2, 4, 3, 1]","B",272,271,464,463,101,112,111,1,128,127,97,"reward",97
"291",0,9,192,191,208,208,144,144,"non",1495,1200,312,312,"[4, 3, 1, 4, 2, 3, 1, 2]","[4, 3, 1, 4, 2, 3, 1, 2]","A",192,191,288,287,101,128,127,1,48,47,97,"reward",97
"292",0,9,NA,NA,NA,207,128,128,"non",1495,512,359,359,"[4, 3, 1, 4, 1]","[4, 3, 1, 4, 2, 3, 1, 2]","A",NA,NA,NA,NA,101,128,127,0,48,47,98,"reward",98
"293",0,9,208,207,192,191,144,143,"non",1495,1408,201,201,"[3, 2, 4, 1, 2, 4, 3, 1]","[3, 2, 4, 1, 2, 4, 3, 1]","B",304,303,400,399,101,80,79,1,80,79,98,"reward",98
"294",0,9,NA,NA,208,207,128,127,"non",1495,976,76,76,"[1, 4, 2, 3, 1, 2]","[1, 4, 2, 3, 1, 3, 4, 2]","C",NA,NA,NA,224,101,256,255,0,160,159,98,"reward",98
"295",0,9,192,191,304,303,144,143,"non",1495,1760,217,217,"[1, 4, 2, 3, 1, 3, 4, 2]","[1, 4, 2, 3, 1, 3, 4, 2]","C",368,367,464,463,101,176,175,1,112,111,99,"reward",99
"296",1,9,128,127,224,223,128,127,"non",1495,1072,181,181,"[4, 3, 1, 4, 2, 3, 1, 2]","[4, 3, 1, 4, 2, 3, 1, 2]","A",240,239,176,176,101,144,143,0,32,31,99,"reward",99
"297",0,9,304,304,256,255,176,175,"non",1463,1296,183,183,"[4, 3, 1, 4, 2, 3, 1, 2]","[4, 3, 1, 4, 2, 3, 1, 2]","A",240,239,128,127,101,112,112,1,80,79,100,"reward",100
"298",0,9,NA,NA,208,207,144,143,"non",1463,1200,228,228,"[1, 4, 2, 3, 1, 3, 2]","[1, 4, 2, 3, 1, 3, 4, 2]","C",NA,159,416,415,101,96,96,0,176,175,100,"reward",100
"299",0,9,176,175,496,495,128,127,"non",1463,1632,214,214,"[3, 2, 4, 1, 2, 4, 3, 1]","[3, 2, 4, 1, 2, 4, 3, 1]","B",336,336,256,255,101,128,127,1,112,111,99,"reward",99
"300",1,9,176,176,352,351,192,191,"non",1463,1248,179,179,"[4, 3, 1, 4, 2, 3, 1, 2]","[4, 3, 1, 4, 2, 3, 1, 2]","A",192,191,144,143,101,96,95,0,96,95,101,"reward",101
"301",0,9,144,143,224,224,192,192,"non",1453,1296,293,293,"[4, 3, 1, 4, 2, 3, 1, 2]","[4, 3, 1, 4, 2, 3, 1, 2]","A",192,191,160,160,101,160,160,1,224,223,102,"reward",102
"302",1,9,144,144,176,175,144,143,"non",1453,1056,296,296,"[4, 3, 1, 4, 2, 3, 1, 2]","[4, 3, 1, 4, 2, 3, 1, 2]","A",240,239,112,112,101,144,143,0,96,95,103,"reward",103
"303",0,9,144,144,144,143,112,111,"non",1463,1360,204,204,"[3, 2, 4, 1, 2, 4, 3, 1]","[3, 2, 4, 1, 2, 4, 3, 1]","B",320,319,464,463,101,96,95,1,80,79,100,"reward",100
"304",1,9,144,144,288,287,128,127,"non",1463,1024,228,228,"[4, 3, 1, 4, 2, 3, 1, 2]","[4, 3, 1, 4, 2, 3, 1, 2]","A",192,191,96,95,101,144,143,0,32,31,104,"reward",104
"305",0,9,128,127,432,431,144,143,"non",1437,1312,272,272,"[4, 3, 1, 4, 2, 3, 1, 2]","[4, 3, 1, 4, 2, 3, 1, 2]","A",208,207,224,223,101,128,128,1,48,47,105,"reward",105
"306",1,9,128,127,160,159,192,191,"non",1437,1104,277,277,"[4, 3, 1, 4, 2, 3, 1, 2]","[4, 3, 1, 4, 2, 3, 1, 2]","A",192,191,144,144,101,208,207,0,80,79,106,"reward",106
"307",0,9,176,175,160,160,144,143,"non",1437,1376,258,258,"[3, 2, 4, 1, 2, 4, 3, 1]","[3, 2, 4, 1, 2, 4, 3, 1]","B",272,271,432,431,101,112,112,1,80,79,101,"reward",101
"308",0,9,160,159,144,144,144,144,"non",1437,1440,128,128,"[3, 2, 4, 1, 2, 4, 3, 1]","[3, 2, 4, 1, 2, 4, 3, 1]","B",256,256,480,479,101,128,127,1,128,127,102,"reward",102
"309",0,9,NA,NA,512,511,160,159,"non",1437,1296,63,63,"[1, 4, 2, 3, 1, 4]","[1, 4, 2, 3, 1, 3, 4, 2]","C",NA,NA,NA,271,101,112,111,0,240,239,101,"reward",101
"310",0,9,160,160,512,511,208,207,"non",1437,1632,88,88,"[3, 2, 4, 1, 2, 4, 3, 1]","[3, 2, 4, 1, 2, 4, 3, 1]","B",320,319,176,175,101,112,111,1,144,143,103,"reward",103
"311",0,9,NA,NA,400,400,144,144,"non",1437,1152,213,213,"[1, 4, 2, 3, 1, 4]","[1, 4, 2, 3, 1, 3, 4, 2]","C",NA,NA,NA,271,101,160,159,0,176,175,102,"reward",102
"312",0,9,240,239,176,175,144,144,"non",1437,1712,296,296,"[1, 4, 2, 3, 1, 3, 4, 2]","[1, 4, 2, 3, 1, 3, 4, 2]","C",576,575,240,239,101,176,175,1,160,159,103,"reward",103
"313",0,9,208,207,432,431,128,128,"non",1437,1728,280,280,"[1, 4, 2, 3, 1, 3, 4, 2]","[1, 4, 2, 3, 1, 3, 4, 2]","C",256,255,400,399,101,176,175,1,128,127,104,"reward",104
"314",1,9,144,143,208,208,96,96,"non",1437,1040,158,158,"[4, 3, 1, 4, 2, 3, 1, 2]","[4, 3, 1, 4, 2, 3, 1, 2]","A",192,191,128,128,101,192,191,0,80,79,107,"reward",107
"315",0,9,NA,NA,192,191,144,143,"non",1385,1632,96,96,"[1, 4, 2, 3, 1, 4]","[1, 4, 2, 3, 1, 3, 4, 2]","C",NA,NA,NA,143,101,240,239,0,912,911,105,"reward",105
"316",0,9,NA,NA,NA,NA,NA,NA,"non",1385,288,272,272,"[1, 2]","[1, 4, 2, 3, 1, 3, 4, 2]","C",NA,NA,NA,NA,101,NA,NA,0,NA,287,106,"reward",106
"317",0,9,NA,NA,160,159,112,111,"non",1385,688,166,166,"[3, 2, 4, 1, 2, 3]","[3, 2, 4, 1, 2, 4, 3, 1]","B",NA,NA,NA,191,101,112,111,0,112,111,104,"reward",104
"318",0,9,NA,NA,NA,255,128,127,"non",1385,592,182,182,"[3, 2, 4, 1, 4]","[3, 2, 4, 1, 2, 4, 3, 1]","B",NA,NA,NA,NA,101,128,127,0,80,79,105,"reward",105
"319",0,9,NA,NA,NA,NA,NA,NA,"non",1385,0,NA,97,"[2]","[3, 2, 4, 1, 2, 4, 3, 1]","B",NA,NA,NA,NA,101,NA,NA,0,NA,NA,106,"reward",106
"320",0,9,192,192,352,351,272,271,"non",1385,1728,262,262,"[3, 2, 4, 1, 2, 4, 3, 1]","[3, 2, 4, 1, 2, 4, 3, 1]","B",304,303,352,351,101,160,159,1,96,95,107,"reward",107
"321",0,9,NA,NA,NA,NA,NA,NA,"non",1385,272,247,247,"[3, 2, 1]","[3, 2, 4, 1, 2, 4, 3, 1]","B",NA,NA,NA,NA,101,NA,159,0,112,111,108,"reward",108
"322",1,9,128,127,208,207,192,192,"non",1385,1072,175,175,"[4, 3, 1, 4, 2, 3, 1, 2]","[4, 3, 1, 4, 2, 3, 1, 2]","A",208,207,144,143,101,112,111,0,80,79,108,"reward",108
"323",0,9,NA,NA,240,239,208,208,"non",1384,1424,120,120,"[1, 4, 2, 3, 1, 4]","[1, 4, 2, 3, 1, 3, 4, 2]","C",NA,NA,NA,224,101,192,191,0,560,559,107,"reward",107
"324",0,9,NA,NA,224,223,160,159,"non",1384,992,342,342,"[1, 4, 2, 3, 1, 2]","[1, 4, 2, 3, 1, 3, 4, 2]","C",NA,NA,NA,207,101,224,224,0,176,175,108,"reward",108
"325",1,1,336,335,192,191,192,191,"non",NA,1712,218,218,"[3, 2, 4, 1, 2, 4, 3, 1]","[3, 2, 4, 1, 2, 4, 3, 1]","B",288,287,432,431,101,144,143,0,128,127,1,"test",1
"326",1,1,304,303,224,223,208,207,"non",NA,2064,357,357,"[1, 4, 2, 3, 1, 3, 4, 2]","[1, 4, 2, 3, 1, 3, 4, 2]","C",320,319,496,495,101,272,271,0,240,239,1,"test",1
"327",0,1,NA,NA,NA,NA,NA,NA,"non",NA,208,277,277,"[4, 1]","[4, 3, 1, 4, 2, 3, 1, 2]","A",NA,NA,NA,NA,101,NA,NA,0,NA,207,1,"test",1
"328",1,1,256,255,320,319,240,239,"non",NA,2064,204,204,"[1, 4, 2, 3, 1, 3, 4, 2]","[1, 4, 2, 3, 1, 3, 4, 2]","C",240,239,512,511,101,352,351,0,144,143,2,"test",2
"329",0,1,NA,NA,432,431,96,95,"non",NA,1136,245,245,"[4, 3, 1, 4, 2, 1]","[4, 3, 1, 4, 2, 3, 1, 2]","A",NA,NA,NA,255,101,176,175,0,176,175,2,"test",2
"330",1,1,304,303,304,303,224,223,"non",NA,1888,253,253,"[3, 2, 4, 1, 2, 4, 3, 1]","[3, 2, 4, 1, 2, 4, 3, 1]","B",288,287,400,399,101,288,287,0,80,79,2,"test",2
"331",1,1,304,303,272,271,208,207,"non",NA,2208,245,245,"[1, 4, 2, 3, 1, 3, 4, 2]","[1, 4, 2, 3, 1, 3, 4, 2]","C",384,383,496,495,101,352,351,0,192,191,3,"test",3
"332",0,1,NA,NA,NA,431,272,271,"non",NA,1232,437,437,"[1, 4, 2, 3, 3]","[1, 4, 2, 3, 4, 3, 1, 2]","random",NA,NA,NA,NA,101,288,287,0,240,239,1,"test",1
"333",1,1,224,223,416,415,159,159,"non",NA,1952,92,92,"[3, 2, 4, 1, 2, 4, 3, 1]","[3, 2, 4, 1, 2, 4, 3, 1]","B",432,431,272,271,101,241,240,0,208,207,3,"test",3
"334",1,1,304,303,256,255,288,287,"non",NA,2048,325,325,"[1, 4, 2, 3, 1, 3, 4, 2]","[1, 4, 2, 3, 1, 3, 4, 2]","C",272,271,368,367,101,320,319,0,240,239,4,"test",4
"335",1,1,464,463,304,303,224,223,"non",NA,1968,229,229,"[4, 3, 1, 4, 2, 3, 1, 2]","[4, 3, 1, 4, 2, 3, 1, 2]","A",224,223,320,319,101,224,223,0,208,207,3,"test",3
"336",1,1,496,495,256,255,240,239,"non",NA,1776,229,229,"[4, 3, 1, 4, 2, 3, 1, 2]","[4, 3, 1, 4, 2, 3, 1, 2]","A",192,191,240,239,101,192,191,0,160,159,4,"test",4
"337",1,1,176,175,384,383,176,175,"non",NA,1840,229,229,"[3, 2, 4, 1, 2, 4, 3, 1]","[3, 2, 4, 1, 2, 4, 3, 1]","B",368,367,368,367,101,208,207,0,160,159,4,"test",4
"338",1,1,320,319,480,479,400,399,"non",NA,2688,389,389,"[4, 3, 1, 2, 1, 2, 4, 3]","[4, 3, 1, 2, 1, 2, 4, 3]","random",528,527,320,319,101,256,255,0,384,383,2,"test",2
"339",1,1,336,335,352,351,224,223,"non",NA,2496,421,421,"[2, 1, 3, 4, 1, 3, 4, 2]","[2, 1, 3, 4, 1, 3, 4, 2]","random",208,207,480,479,101,464,463,0,432,431,3,"test",3
"340",1,1,240,239,208,207,240,239,"non",NA,1952,229,229,"[1, 4, 2, 3, 1, 3, 4, 2]","[1, 4, 2, 3, 1, 3, 4, 2]","C",384,383,400,399,101,272,271,0,208,207,5,"test",5
"341",0,1,NA,271,208,207,256,255,"non",NA,1824,180,180,"[1, 4, 2, 3, 1, 3, 4, 1]","[1, 4, 2, 3, 1, 3, 4, 2]","C",288,287,288,287,101,256,255,0,256,255,6,"test",6
"342",1,1,368,367,272,271,160,159,"non",NA,1536,187,187,"[4, 3, 1, 4, 2, 3, 1, 2]","[4, 3, 1, 4, 2, 3, 1, 2]","A",176,175,208,207,101,160,159,0,192,191,5,"test",5
"343",1,1,400,399,272,271,208,207,"non",NA,1936,244,244,"[3, 2, 4, 1, 2, 4, 3, 1]","[3, 2, 4, 1, 2, 4, 3, 1]","B",320,319,400,399,101,160,159,0,176,175,5,"test",5
"344",1,1,320,319,368,367,256,255,"non",NA,2304,261,261,"[1, 4, 2, 3, 1, 3, 4, 2]","[1, 4, 2, 3, 1, 3, 4, 2]","C",288,287,544,543,101,304,303,0,224,223,7,"test",7
"345",1,1,432,431,528,527,368,367,"non",NA,2832,533,533,"[3, 4, 2, 1, 3, 2, 4, 1]","[3, 4, 2, 1, 3, 2, 4, 1]","random",416,415,400,399,101,400,399,0,288,287,4,"test",4
"346",1,1,192,191,256,255,224,223,"non",NA,1504,276,276,"[4, 3, 1, 4, 2, 3, 1, 2]","[4, 3, 1, 4, 2, 3, 1, 2]","A",192,191,240,239,101,208,207,0,192,191,6,"test",6
"347",1,1,176,175,368,367,192,191,"non",NA,1760,229,229,"[3, 2, 4, 1, 2, 4, 3, 1]","[3, 2, 4, 1, 2, 4, 3, 1]","B",368,367,304,303,101,176,175,0,176,175,6,"test",6
"348",0,1,NA,303,432,431,176,175,"non",NA,1936,213,213,"[3, 2, 4, 1, 2, 4, 3, 2]","[3, 2, 4, 1, 2, 4, 3, 1]","B",288,287,336,335,101,224,223,0,176,175,7,"test",7
"349",1,1,240,239,320,319,192,191,"non",NA,1551,379,379,"[4, 3, 1, 4, 2, 3, 1, 2]","[4, 3, 1, 4, 2, 3, 1, 2]","A",176,175,224,223,101,192,191,0,207,207,7,"test",7
"350",1,1,208,207,384,383,176,175,"non",NA,1792,180,180,"[3, 2, 4, 1, 2, 4, 3, 1]","[3, 2, 4, 1, 2, 4, 3, 1]","B",272,271,336,335,101,208,207,0,208,207,8,"test",8
"351",1,1,272,271,288,287,320,319,"non",NA,2368,469,469,"[3, 2, 1, 4, 2, 4, 3, 1]","[3, 2, 1, 4, 2, 4, 3, 1]","random",319,319,465,464,101,448,447,0,256,255,5,"test",5
"352",1,1,160,159,192,191,176,175,"non",NA,1232,277,277,"[4, 3, 1, 4, 2, 3, 1, 2]","[4, 3, 1, 4, 2, 3, 1, 2]","A",176,175,176,175,101,192,191,0,160,159,8,"test",8
"353",1,1,336,335,288,287,160,159,"non",NA,1904,212,212,"[3, 2, 4, 1, 2, 4, 3, 1]","[3, 2, 4, 1, 2, 4, 3, 1]","B",304,303,448,447,101,192,191,0,176,175,9,"test",9
"354",0,1,NA,NA,NA,NA,NA,NA,"non",NA,208,260,260,"[3, 2]","[3, 1, 2, 4, 3, 4, 1, 2]","random",NA,NA,NA,NA,101,NA,NA,0,NA,207,6,"test",6
"355",0,1,NA,NA,NA,NA,NA,NA,"non",NA,592,493,493,"[4, 3, 1]","[4, 3, 2, 1, 4, 1, 3, 2]","random",NA,NA,NA,NA,101,NA,303,0,288,287,7,"test",7
"356",1,1,304,303,288,287,240,239,"non",NA,2176,298,298,"[1, 4, 2, 3, 1, 3, 4, 2]","[1, 4, 2, 3, 1, 3, 4, 2]","C",272,271,528,527,101,288,287,0,256,255,8,"test",8
"357",1,1,176,175,352,351,224,223,"non",NA,1632,292,292,"[4, 3, 1, 4, 2, 3, 1, 2]","[4, 3, 1, 4, 2, 3, 1, 2]","A",208,207,272,271,101,224,223,0,176,175,9,"test",9
"358",1,1,336,335,384,383,160,159,"non",NA,1952,245,245,"[3, 2, 4, 1, 2, 4, 3, 1]","[3, 2, 4, 1, 2, 4, 3, 1]","B",320,319,368,367,101,224,223,0,160,159,10,"test",10
"359",1,1,128,127,192,191,208,207,"non",NA,1248,292,292,"[4, 3, 1, 4, 2, 3, 1, 2]","[4, 3, 1, 4, 2, 3, 1, 2]","A",176,175,176,175,101,208,207,0,160,159,10,"test",10
"360",1,1,368,367,304,303,176,175,"non",NA,2000,164,164,"[1, 4, 2, 3, 1, 3, 4, 2]","[1, 4, 2, 3, 1, 3, 4, 2]","C",240,239,480,479,101,288,287,0,144,143,9,"test",9
"361",1,1,384,383,224,223,224,223,"non",NA,1904,229,229,"[1, 4, 2, 3, 1, 3, 4, 2]","[1, 4, 2, 3, 1, 3, 4, 2]","C",272,271,384,383,101,208,207,0,208,207,10,"test",10
"362",1,1,320,319,352,351,432,431,"non",NA,2448,405,405,"[4, 3, 1, 2, 3, 4, 1, 2]","[4, 3, 1, 2, 3, 4, 1, 2]","random",368,367,320,319,101,400,399,0,256,255,8,"test",8
"363",0,1,NA,NA,NA,NA,NA,NA,"non",NA,288,388,388,"[1, 4]","[1, 3, 4, 2, 3, 1, 4, 2]","random",NA,NA,NA,NA,101,NA,NA,0,NA,287,9,"test",9
"364",1,1,384,383,304,303,352,351,"non",NA,2704,505,505,"[3, 1, 4, 2, 3, 1, 4, 2]","[3, 1, 4, 2, 3, 1, 4, 2]","random",480,479,368,367,101,416,415,0,400,399,10,"test",10
"365",1,2,336,335,256,255,160,159,"non",NA,2112,298,298,"[1, 4, 2, 3, 1, 3, 4, 2]","[1, 4, 2, 3, 1, 3, 4, 2]","C",320,319,432,431,101,368,367,0,240,239,11,"test",11
"366",1,2,416,415,288,287,368,367,"non",NA,2592,357,357,"[1, 4, 2, 3, 1, 3, 2, 4]","[1, 4, 2, 3, 1, 3, 2, 4]","random",384,383,544,543,101,320,319,0,272,271,11,"test",11
"367",1,2,272,271,208,207,176,175,"non",NA,1616,276,276,"[1, 4, 2, 3, 1, 3, 4, 2]","[1, 4, 2, 3, 1, 3, 4, 2]","C",256,255,272,271,101,192,191,0,240,239,12,"test",12
"368",1,2,128,127,208,207,160,159,"non",NA,1216,276,276,"[4, 3, 1, 4, 2, 3, 1, 2]","[4, 3, 1, 4, 2, 3, 1, 2]","A",176,175,192,191,101,192,191,0,160,159,11,"test",11
"369",1,2,192,191,367,367,449,448,"non",NA,1776,228,228,"[4, 3, 1, 4, 2, 3, 1, 2]","[4, 3, 1, 4, 2, 3, 1, 2]","A",160,159,208,207,101,240,239,0,160,159,12,"test",12
"370",1,2,192,191,208,207,160,159,"non",NA,1296,260,260,"[4, 3, 1, 4, 2, 3, 1, 2]","[4, 3, 1, 4, 2, 3, 1, 2]","A",240,239,160,159,101,176,175,0,160,159,13,"test",13
"371",1,2,128,127,208,207,176,175,"non",NA,1184,244,244,"[4, 3, 1, 4, 2, 3, 1, 2]","[4, 3, 1, 4, 2, 3, 1, 2]","A",192,191,160,159,101,160,159,0,160,159,14,"test",14
"372",1,2,128,127,208,207,144,143,"non",NA,1136,324,324,"[4, 3, 1, 4, 2, 3, 1, 2]","[4, 3, 1, 4, 2, 3, 1, 2]","A",208,207,128,127,101,176,175,0,144,143,15,"test",15
"373",0,2,NA,207,400,399,176,175,"non",NA,1792,452,452,"[3, 2, 4, 1, 2, 4, 3, 2]","[3, 2, 4, 1, 2, 4, 3, 1]","B",416,415,224,223,101,176,175,0,192,191,11,"test",11
"374",1,2,112,111,208,207,128,127,"non",NA,1184,236,236,"[4, 3, 1, 4, 2, 3, 1, 2]","[4, 3, 1, 4, 2, 3, 1, 2]","A",208,207,128,127,101,208,207,0,192,191,16,"test",16
"375",1,2,352,351,480,479,368,367,"non",NA,2608,452,452,"[3, 4, 2, 1, 3, 4, 2, 1]","[3, 4, 2, 1, 3, 4, 2, 1]","random",304,303,304,303,101,464,463,0,336,335,12,"test",12
"376",0,2,NA,287,208,207,176,175,"non",NA,1696,244,244,"[1, 4, 2, 3, 1, 3, 4, 1]","[1, 4, 2, 3, 1, 3, 4, 2]","C",240,239,368,367,101,208,207,0,208,207,13,"test",13
"377",1,2,304,303,400,399,240,239,"non",NA,2208,265,265,"[1, 4, 2, 3, 1, 3, 4, 2]","[1, 4, 2, 3, 1, 3, 4, 2]","C",272,271,496,495,101,272,271,0,224,223,14,"test",14
"378",1,2,288,287,288,287,240,239,"non",NA,1856,148,148,"[1, 4, 2, 3, 1, 3, 4, 2]","[1, 4, 2, 3, 1, 3, 4, 2]","C",256,255,352,351,101,224,223,0,208,207,15,"test",15
"379",1,2,353,352,544,543,368,367,"non",NA,3041,451,451,"[2, 1, 4, 3, 4, 2, 3, 1]","[2, 1, 4, 3, 4, 2, 3, 1]","random",368,367,544,543,101,480,479,0,384,383,13,"test",13
"380",0,2,NA,NA,NA,NA,NA,NA,"non",NA,480,388,388,"[1, 4]","[1, 3, 2, 4, 3, 4, 1, 2]","random",NA,NA,NA,NA,101,NA,NA,0,NA,479,14,"test",14
"381",1,2,320,319,384,383,320,319,"non",NA,2384,393,393,"[1, 4, 2, 3, 1, 3, 4, 2]","[1, 4, 2, 3, 1, 3, 4, 2]","C",320,319,432,431,101,288,287,0,320,319,16,"test",16
"382",1,2,352,351,416,415,432,431,"non",NA,2848,420,420,"[3, 2, 4, 1, 4, 3, 2, 1]","[3, 2, 4, 1, 4, 3, 2, 1]","random",464,463,416,415,101,416,415,0,352,351,15,"test",15
"383",1,2,288,287,224,223,192,191,"non",NA,1808,260,260,"[1, 4, 2, 3, 1, 3, 4, 2]","[1, 4, 2, 3, 1, 3, 4, 2]","C",272,271,400,399,101,224,223,0,208,207,17,"test",17
"384",1,2,192,191,400,399,192,191,"non",NA,1808,212,212,"[3, 2, 4, 1, 2, 4, 3, 1]","[3, 2, 4, 1, 2, 4, 3, 1]","B",304,303,304,303,101,224,223,0,192,191,12,"test",12
"385",0,2,NA,271,288,287,144,143,"non",NA,1680,260,260,"[3, 2, 4, 1, 2, 4, 3, 2]","[3, 2, 4, 1, 2, 4, 3, 1]","B",288,287,304,303,101,224,223,0,160,159,13,"test",13
"386",1,2,384,383,352,351,432,431,"non",NA,2496,471,471,"[4, 3, 1, 2, 3, 4, 2, 1]","[4, 3, 1, 2, 3, 4, 2, 1]","random",400,399,272,271,101,384,383,0,272,271,16,"test",16
"387",1,2,320,319,368,367,176,175,"non",NA,1904,291,291,"[3, 2, 4, 1, 2, 4, 3, 1]","[3, 2, 4, 1, 2, 4, 3, 1]","B",368,367,272,271,101,224,223,0,176,175,14,"test",14
"388",1,2,336,335,240,239,192,191,"non",NA,1808,292,292,"[1, 4, 2, 3, 1, 3, 4, 2]","[1, 4, 2, 3, 1, 3, 4, 2]","C",272,271,368,367,101,208,207,0,192,191,18,"test",18
"389",1,2,432,431,368,367,384,383,"non",NA,2656,404,404,"[2, 3, 1, 4, 3, 2, 1, 4]","[2, 3, 1, 4, 3, 2, 1, 4]","random",351,351,369,368,101,400,399,0,352,351,17,"test",17
"390",1,2,320,319,352,351,176,175,"non",NA,1808,260,260,"[3, 2, 4, 1, 2, 4, 3, 1]","[3, 2, 4, 1, 2, 4, 3, 1]","B",288,287,320,319,101,192,191,0,160,159,15,"test",15
"391",1,2,208,207,368,367,192,191,"non",NA,1760,276,276,"[3, 2, 4, 1, 2, 4, 3, 1]","[3, 2, 4, 1, 2, 4, 3, 1]","B",336,335,272,271,101,224,223,0,160,159,16,"test",16
"392",1,2,192,191,288,287,160,159,"non",NA,1424,324,324,"[4, 3, 1, 4, 2, 3, 1, 2]","[4, 3, 1, 4, 2, 3, 1, 2]","A",256,255,160,159,101,192,191,0,176,175,17,"test",17
"393",1,2,160,159,256,255,192,191,"non",NA,1488,84,84,"[3, 2, 4, 1, 2, 4, 3, 1]","[3, 2, 4, 1, 2, 4, 3, 1]","B",240,239,320,319,101,128,127,0,192,191,17,"test",17
"394",1,2,336,335,272,271,144,143,"non",NA,2064,277,277,"[1, 4, 2, 3, 1, 3, 4, 2]","[1, 4, 2, 3, 1, 3, 4, 2]","C",240,239,672,671,101,224,223,0,176,175,19,"test",19
"395",1,2,176,175,272,271,160,159,"non",NA,1599,261,261,"[3, 2, 4, 1, 2, 4, 3, 1]","[3, 2, 4, 1, 2, 4, 3, 1]","B",240,239,384,383,101,192,191,0,175,175,18,"test",18
"396",1,2,320,319,400,399,432,431,"non",NA,2960,388,388,"[2, 4, 1, 3, 1, 4, 3, 2]","[2, 4, 1, 3, 1, 4, 3, 2]","random",480,479,496,495,101,400,399,0,432,431,18,"test",18
"397",1,2,368,367,528,527,336,335,"non",NA,2944,387,387,"[1, 3, 4, 2, 4, 3, 1, 2]","[1, 3, 4, 2, 4, 3, 1, 2]","random",352,351,448,447,101,448,447,0,464,463,19,"test",19
"398",1,2,368,367,400,399,336,335,"non",NA,2576,452,452,"[3, 4, 1, 2, 3, 4, 2, 1]","[3, 4, 1, 2, 3, 4, 2, 1]","random",416,415,304,303,101,416,415,0,336,335,20,"test",20
"399",0,2,NA,NA,NA,175,144,143,"non",NA,624,307,307,"[4, 3, 1, 4, 1]","[4, 3, 1, 4, 2, 3, 1, 2]","A",NA,NA,NA,NA,101,224,223,0,80,79,18,"test",18
"400",1,2,176,175,368,367,224,223,"non",NA,1600,246,246,"[3, 2, 4, 1, 2, 4, 3, 1]","[3, 2, 4, 1, 2, 4, 3, 1]","B",240,239,240,239,101,208,207,0,144,143,19,"test",19
"401",1,2,288,287,320,319,176,175,"non",NA,1968,291,291,"[1, 4, 2, 3, 1, 3, 4, 2]","[1, 4, 2, 3, 1, 3, 4, 2]","C",272,271,416,415,101,304,303,0,192,191,20,"test",20
"402",1,2,256,255,512,511,544,543,"non",NA,2352,307,307,"[4, 3, 1, 4, 2, 3, 1, 2]","[4, 3, 1, 4, 2, 3, 1, 2]","A",320,319,304,303,101,192,191,0,224,223,19,"test",19
"403",1,2,176,175,208,207,192,191,"non",NA,1344,263,263,"[4, 3, 1, 4, 2, 3, 1, 2]","[4, 3, 1, 4, 2, 3, 1, 2]","A",272,271,160,159,101,208,207,0,128,127,20,"test",20
"404",1,2,160,159,272,271,192,191,"non",NA,1440,264,264,"[3, 2, 4, 1, 2, 4, 3, 1]","[3, 2, 4, 1, 2, 4, 3, 1]","B",240,239,272,271,101,160,159,0,144,143,20,"test",20
"405",1,3,144,143,208,207,176,175,"non",NA,1440,270,270,"[3, 2, 4, 1, 2, 4, 3, 1]","[3, 2, 4, 1, 2, 4, 3, 1]","B",272,271,320,319,101,160,159,0,160,159,21,"test",21
"406",1,3,289,288,336,335,208,207,"non",NA,2176,20,20,"[1, 4, 2, 3, 1, 3, 4, 2]","[1, 4, 2, 3, 1, 3, 4, 2]","C",271,271,561,560,101,304,303,0,207,206,21,"test",21
"407",1,3,128,127,224,223,256,255,"non",NA,1344,243,243,"[4, 3, 1, 4, 2, 3, 1, 2]","[4, 3, 1, 4, 2, 3, 1, 2]","A",191,191,129,128,101,224,223,0,192,191,21,"test",21
"408",0,3,NA,NA,NA,NA,NA,NA,"non",NA,256,468,468,"[3, 4]","[3, 2, 1, 4, 3, 1, 4, 2]","random",NA,NA,NA,NA,101,NA,NA,0,NA,255,21,"test",21
"409",1,3,480,479,400,399,336,335,"non",NA,2912,389,389,"[3, 4, 1, 2, 3, 1, 2, 4]","[3, 4, 1, 2, 3, 1, 2, 4]","random",352,351,496,495,101,480,479,0,368,367,22,"test",22
"410",1,3,352,351,208,207,192,191,"non",NA,1936,276,276,"[1, 4, 2, 3, 1, 3, 4, 2]","[1, 4, 2, 3, 1, 3, 4, 2]","C",304,303,448,447,101,240,239,0,192,191,22,"test",22
"411",1,3,113,112,176,175,208,207,"non",NA,1201,277,277,"[4, 3, 1, 4, 2, 3, 1, 2]","[4, 3, 1, 4, 2, 3, 1, 2]","A",192,191,128,127,101,224,223,0,160,159,22,"test",22
"412",1,3,320,319,448,447,320,319,"non",NA,2464,375,375,"[4, 2, 3, 1, 4, 2, 1, 3]","[4, 2, 3, 1, 4, 2, 1, 3]","random",384,383,336,335,101,320,319,0,336,335,23,"test",23
"413",1,3,256,255,240,239,159,159,"non",NA,1664,247,247,"[1, 4, 2, 3, 1, 3, 4, 2]","[1, 4, 2, 3, 1, 3, 4, 2]","C",240,239,384,383,101,209,208,0,176,175,23,"test",23
"414",1,3,176,175,192,191,160,159,"non",NA,1488,231,231,"[3, 2, 4, 1, 2, 4, 3, 1]","[3, 2, 4, 1, 2, 4, 3, 1]","B",304,303,384,383,101,128,127,0,144,143,22,"test",22
"415",0,3,NA,NA,NA,NA,NA,NA,"non",NA,352,263,263,"[1, 4, 1]","[1, 4, 2, 3, 1, 3, 4, 2]","C",NA,NA,NA,NA,101,NA,223,0,128,127,24,"test",24
"416",1,3,208,207,304,303,208,207,"non",NA,1904,245,245,"[1, 4, 2, 3, 1, 3, 4, 2]","[1, 4, 2, 3, 1, 3, 4, 2]","C",272,271,496,495,101,208,207,0,208,207,25,"test",25
"417",1,3,384,383,224,223,192,191,"non",NA,1840,211,211,"[3, 2, 4, 1, 2, 4, 3, 1]","[3, 2, 4, 1, 2, 4, 3, 1]","B",320,319,400,399,101,208,207,0,112,111,23,"test",23
"418",1,3,145,144,256,255,240,239,"non",NA,1329,307,307,"[4, 3, 1, 4, 2, 3, 1, 2]","[4, 3, 1, 4, 2, 3, 1, 2]","A",192,191,160,159,101,176,175,0,160,159,23,"test",23
"419",1,3,128,127,208,207,144,143,"non",NA,1248,259,259,"[4, 3, 1, 4, 2, 3, 1, 2]","[4, 3, 1, 4, 2, 3, 1, 2]","A",256,255,176,175,101,192,191,0,144,143,24,"test",24
"420",1,3,400,399,352,351,208,207,"non",NA,1968,259,259,"[3, 2, 4, 1, 2, 4, 3, 1]","[3, 2, 4, 1, 2, 4, 3, 1]","B",320,319,352,351,101,176,175,0,160,159,24,"test",24
"421",1,3,144,143,224,223,128,127,"non",NA,1088,259,259,"[4, 3, 1, 4, 2, 3, 1, 2]","[4, 3, 1, 4, 2, 3, 1, 2]","A",208,207,96,95,101,192,191,0,96,95,25,"test",25
"422",1,3,240,239,304,303,752,751,"non",NA,2016,259,259,"[4, 3, 1, 4, 2, 3, 1, 2]","[4, 3, 1, 4, 2, 3, 1, 2]","A",272,271,224,223,101,208,207,0,16,15,26,"test",26
"423",0,3,NA,NA,NA,NA,NA,NA,"non",NA,400,243,243,"[1, 4, 1]","[1, 4, 2, 3, 1, 3, 4, 2]","C",NA,NA,NA,NA,101,NA,255,0,144,143,26,"test",26
"424",0,3,NA,NA,NA,NA,NA,NA,"non",NA,320,386,386,"[4, 3]","[4, 2, 3, 1, 3, 1, 4, 2]","random",NA,NA,NA,NA,101,NA,NA,0,NA,319,24,"test",24
"425",1,3,112,111,240,239,112,111,"non",NA,1024,261,261,"[4, 3, 1, 4, 2, 3, 1, 2]","[4, 3, 1, 4, 2, 3, 1, 2]","A",208,207,96,95,101,192,191,0,64,63,27,"test",27
"426",1,3,352,351,400,399,304,303,"non",NA,2480,595,595,"[3, 4, 1, 2, 4, 2, 1, 3]","[3, 4, 1, 2, 4, 2, 1, 3]","random",384,383,320,319,101,352,351,0,368,367,25,"test",25
"427",1,3,336,335,352,351,400,399,"non",NA,2832,483,483,"[1, 3, 2, 4, 2, 4, 3, 1]","[1, 3, 2, 4, 2, 4, 3, 1]","random",400,399,496,495,101,320,319,0,528,527,26,"test",26
"428",1,3,352,351,368,367,192,191,"non",NA,1872,291,291,"[3, 2, 4, 1, 2, 4, 3, 1]","[3, 2, 4, 1, 2, 4, 3, 1]","B",336,335,288,287,101,176,175,0,160,159,25,"test",25
"429",1,3,144,143,240,239,160,159,"non",NA,1328,291,291,"[4, 3, 1, 4, 2, 3, 1, 2]","[4, 3, 1, 4, 2, 3, 1, 2]","A",224,223,208,207,101,160,159,0,192,191,28,"test",28
"430",1,3,336,335,336,335,336,335,"non",NA,2416,387,387,"[4, 3, 2, 1, 2, 3, 4, 1]","[4, 3, 2, 1, 2, 3, 4, 1]","random",288,287,336,335,101,368,367,0,416,415,27,"test",27
"431",1,3,448,447,384,383,176,175,"non",NA,2096,258,258,"[1, 4, 2, 3, 1, 3, 4, 2]","[1, 4, 2, 3, 1, 3, 4, 2]","C",240,239,352,351,101,320,319,0,176,175,27,"test",27
"432",1,3,272,271,224,223,176,175,"non",NA,1728,243,243,"[1, 4, 2, 3, 1, 3, 4, 2]","[1, 4, 2, 3, 1, 3, 4, 2]","C",208,207,464,463,101,208,207,0,176,175,28,"test",28
"433",1,3,448,447,320,319,208,207,"non",NA,1856,259,259,"[3, 2, 4, 1, 2, 4, 3, 1]","[3, 2, 4, 1, 2, 4, 3, 1]","B",272,271,272,271,101,192,191,0,144,143,26,"test",26
"434",1,3,208,207,416,415,192,191,"non",NA,1648,243,243,"[3, 2, 4, 1, 2, 4, 3, 1]","[3, 2, 4, 1, 2, 4, 3, 1]","B",272,271,240,239,101,192,191,0,128,127,27,"test",27
"435",1,3,128,127,224,223,192,191,"non",NA,1184,307,307,"[4, 3, 1, 4, 2, 3, 1, 2]","[4, 3, 1, 4, 2, 3, 1, 2]","A",144,143,176,175,101,160,159,0,160,159,29,"test",29
"436",1,3,160,159,448,447,176,175,"non",NA,1616,259,259,"[3, 2, 4, 1, 2, 4, 3, 1]","[3, 2, 4, 1, 2, 4, 3, 1]","B",224,223,256,255,101,192,191,0,160,159,28,"test",28
"437",1,3,208,207,256,255,176,175,"non",NA,1632,211,211,"[1, 4, 2, 3, 1, 3, 4, 2]","[1, 4, 2, 3, 1, 3, 4, 2]","C",224,223,304,303,101,240,239,0,224,223,29,"test",29
"438",1,3,192,191,464,463,192,191,"non",NA,1824,147,147,"[1, 4, 2, 3, 1, 3, 4, 2]","[1, 4, 2, 3, 1, 3, 4, 2]","C",192,191,336,335,101,208,207,0,240,239,30,"test",30
"439",1,3,144,143,304,303,160,159,"non",NA,1472,243,243,"[3, 2, 4, 1, 2, 4, 3, 1]","[3, 2, 4, 1, 2, 4, 3, 1]","B",368,367,208,207,101,160,159,0,128,127,29,"test",29
"440",1,3,416,415,368,367,304,303,"non",NA,2464,387,387,"[4, 1, 3, 2, 3, 2, 1, 4]","[4, 1, 3, 2, 3, 2, 1, 4]","random",368,367,304,303,101,320,319,0,384,383,28,"test",28
"441",0,3,NA,383,448,447,416,415,"non",NA,3504,387,387,"[3, 4, 1, 2, 1, 3, 2, 3]","[3, 4, 1, 2, 1, 3, 2, 4]","random",400,399,560,559,101,640,639,0,656,655,29,"test",29
"442",1,3,176,175,192,191,160,159,"non",NA,1424,292,292,"[3, 2, 4, 1, 2, 4, 3, 1]","[3, 2, 4, 1, 2, 4, 3, 1]","B",320,319,336,335,101,111,111,0,129,128,30,"test",30
"443",1,3,416,415,384,383,256,255,"non",NA,2576,339,339,"[2, 4, 3, 1, 4, 3, 1, 2]","[2, 4, 3, 1, 4, 3, 1, 2]","random",272,271,560,559,101,320,319,0,368,367,30,"test",30
"444",0,3,NA,NA,NA,239,128,127,"non",NA,704,307,307,"[4, 3, 1, 4, 1]","[4, 3, 1, 4, 2, 3, 1, 2]","A",NA,NA,NA,NA,101,224,223,0,112,111,30,"test",30
"445",1,1,256,255,432,431,288,287,"non",NA,2800,430,430,"[1, 4, 2, 3, 1, 4, 3, 2]","[1, 4, 2, 3, 1, 4, 3, 2]","random",560,559,416,415,101,352,351,0,496,495,1,"training",1
"446",1,1,368,367,464,463,304,304,"non",NA,3056,424,424,"[4, 3, 1, 2, 3, 2, 4, 1]","[4, 3, 1, 2, 3, 2, 4, 1]","random",560,559,496,495,101,480,479,0,384,383,2,"training",2
"447",1,1,336,335,512,511,288,287,"non",NA,2688,409,409,"[4, 1, 3, 2, 3, 2, 1, 4]","[4, 1, 3, 2, 3, 2, 1, 4]","random",416,415,384,383,101,416,415,0,336,335,3,"training",3
"448",0,1,NA,335,368,367,320,319,"non",NA,2816,472,472,"[3, 2, 1, 4, 2, 4, 3, 2]","[3, 2, 1, 4, 2, 4, 3, 1]","random",480,479,576,575,101,400,399,0,336,335,4,"training",4
"449",1,1,400,399,384,383,368,367,"non",NA,2832,413,413,"[4, 2, 3, 1, 4, 3, 2, 1]","[4, 2, 3, 1, 4, 3, 2, 1]","random",352,351,576,575,101,352,351,0,400,399,5,"training",5
"450",1,1,368,367,368,367,400,399,"non",NA,2992,377,377,"[4, 3, 1, 2, 3, 4, 1, 2]","[4, 3, 1, 2, 3, 4, 1, 2]","random",384,383,496,495,101,496,495,0,480,479,6,"training",6
"451",1,1,368,367,432,431,368,367,"non",NA,3120,488,488,"[3, 1, 4, 2, 3, 1, 4, 2]","[3, 1, 4, 2, 3, 1, 4, 2]","random",464,463,512,511,101,512,511,0,464,463,7,"training",7
"452",1,1,384,383,464,463,304,303,"non",NA,3040,426,426,"[2, 3, 4, 1, 4, 3, 2, 1]","[2, 3, 4, 1, 4, 3, 2, 1]","random",272,271,656,655,101,480,479,0,480,480,8,"training",8
"453",1,1,448,447,608,607,288,287,"non",NA,3120,423,423,"[1, 4, 3, 2, 3, 4, 2, 1]","[1, 4, 3, 2, 3, 4, 2, 1]","random",368,367,512,511,101,496,495,0,400,399,9,"training",9
"454",1,1,368,367,480,479,400,399,"non",NA,2976,520,520,"[1, 2, 4, 3, 1, 4, 2, 3]","[1, 2, 4, 3, 1, 4, 2, 3]","random",336,335,528,527,101,448,447,0,416,415,10,"training",10
"455",1,1,480,479,608,608,368,367,"non",NA,3280,360,360,"[4, 1, 2, 3, 2, 4, 3, 1]","[4, 1, 2, 3, 2, 4, 3, 1]","random",560,559,400,399,101,496,495,0,368,367,11,"training",11
"456",1,1,432,431,512,511,368,367,"non",NA,2896,361,361,"[4, 3, 2, 1, 3, 2, 4, 1]","[4, 3, 2, 1, 3, 2, 4, 1]","random",496,495,336,335,101,336,335,0,416,415,12,"training",12
"457",1,1,416,415,416,415,304,303,"non",NA,2832,410,410,"[2, 3, 4, 1, 2, 3, 4, 1]","[2, 3, 4, 1, 2, 3, 4, 1]","random",368,368,528,527,101,400,399,0,400,399,13,"training",13
"458",0,1,NA,415,544,543,352,351,"non",NA,2912,538,538,"[3, 2, 1, 4, 1, 3, 2, 3]","[3, 2, 1, 4, 1, 3, 2, 4]","random",320,319,528,527,101,400,399,0,352,352,14,"training",14
"459",1,1,592,591,368,367,272,271,"non",NA,2768,332,332,"[1, 4, 2, 3, 1, 3, 4, 2]","[1, 4, 2, 3, 1, 3, 4, 2]","random",336,335,480,479,101,336,335,0,384,383,15,"training",15
"460",1,1,432,431,528,527,384,383,"non",NA,3040,405,405,"[3, 2, 4, 1, 3, 2, 1, 4]","[3, 2, 4, 1, 3, 2, 1, 4]","random",496,495,352,351,101,448,447,0,400,399,16,"training",16
"461",1,1,416,415,640,639,336,335,"non",NA,3120,405,405,"[1, 2, 3, 4, 3, 4, 1, 2]","[1, 2, 3, 4, 3, 4, 1, 2]","random",416,415,512,511,101,368,367,0,432,431,17,"training",17
"462",1,1,464,463,512,511,336,335,"non",NA,3328,329,329,"[1, 4, 3, 2, 4, 3, 1, 2]","[1, 4, 3, 2, 4, 3, 1, 2]","random",432,431,560,559,101,560,559,0,464,463,18,"training",18
"463",0,1,NA,687,544,543,336,335,"non",NA,3552,361,361,"[4, 2, 3, 1, 2, 4, 1, 4]","[4, 2, 3, 1, 2, 4, 1, 3]","random",528,527,560,559,101,448,447,0,448,447,19,"training",19
"464",1,1,496,495,432,431,304,303,"non",NA,2912,432,432,"[2, 3, 1, 4, 3, 1, 4, 2]","[2, 3, 1, 4, 3, 1, 4, 2]","random",592,591,432,431,101,368,367,0,288,287,20,"training",20
"465",1,1,448,447,736,735,320,319,"non",NA,3120,342,342,"[2, 1, 3, 4, 3, 2, 1, 4]","[2, 1, 3, 4, 3, 2, 1, 4]","random",336,335,384,383,101,480,479,0,416,415,21,"training",21
"466",1,1,384,383,368,367,464,463,"non",NA,3088,453,453,"[3, 4, 1, 2, 3, 2, 1, 4]","[3, 4, 1, 2, 3, 2, 1, 4]","random",480,479,528,527,101,352,351,0,512,512,22,"training",22
"467",1,1,432,431,464,463,320,319,"non",NA,3136,535,535,"[3, 2, 4, 1, 2, 1, 4, 3]","[3, 2, 4, 1, 2, 1, 4, 3]","random",512,511,512,511,101,560,559,0,336,335,23,"training",23
"468",1,1,368,367,448,447,304,303,"non",NA,2816,374,374,"[3, 2, 4, 1, 3, 2, 1, 4]","[3, 2, 4, 1, 3, 2, 1, 4]","random",432,431,400,400,101,512,511,0,352,351,24,"training",24
"469",1,1,464,464,512,511,432,431,"non",NA,3312,325,325,"[2, 4, 3, 1, 4, 3, 1, 2]","[2, 4, 3, 1, 4, 3, 1, 2]","random",448,447,384,383,101,576,575,0,496,495,25,"training",25
"470",0,1,NA,NA,NA,911,496,495,"non",NA,2240,357,357,"[1, 3, 4, 2, 4]","[1, 3, 4, 2, 3, 4, 2, 1]","random",NA,NA,NA,NA,101,416,415,0,416,415,26,"training",26
"471",1,1,560,560,448,447,432,431,"non",NA,3296,461,461,"[2, 4, 3, 1, 3, 2, 4, 1]","[2, 4, 3, 1, 3, 2, 4, 1]","random",496,495,544,543,101,352,351,0,464,463,27,"training",27
"472",1,1,480,479,464,463,400,399,"non",NA,3040,389,389,"[4, 1, 3, 2, 3, 4, 1, 2]","[4, 1, 3, 2, 3, 4, 1, 2]","random",416,415,416,415,101,448,447,0,416,415,28,"training",28
"473",1,1,464,463,672,671,256,255,"non",NA,3200,342,342,"[1, 2, 3, 4, 3, 4, 2, 1]","[1, 2, 3, 4, 3, 4, 2, 1]","random",464,463,592,591,101,336,335,0,416,415,29,"training",29
"474",0,1,NA,NA,NA,NA,NA,NA,"non",NA,0,NA,421,"[3]","[2, 3, 1, 4, 2, 1, 4, 3]","random",NA,NA,NA,NA,101,NA,NA,0,NA,NA,30,"training",30
"475",1,1,464,463,576,575,496,495,"non",NA,3424,508,508,"[3, 2, 1, 4, 2, 1, 4, 3]","[3, 2, 1, 4, 2, 1, 4, 3]","random",464,463,480,479,101,480,479,0,464,463,31,"training",31
"476",1,1,528,527,576,575,384,384,"non",NA,3328,453,453,"[3, 2, 4, 1, 3, 2, 4, 1]","[3, 2, 4, 1, 3, 2, 4, 1]","random",512,511,496,495,101,448,447,0,384,383,32,"training",32
"477",1,1,544,543,352,351,512,511,"non",NA,3328,393,393,"[2, 4, 1, 3, 2, 4, 1, 3]","[2, 4, 1, 3, 2, 4, 1, 3]","random",448,447,512,511,101,464,463,0,496,495,33,"training",33
"478",1,1,592,591,448,447,624,624,"non",NA,3360,423,423,"[4, 1, 2, 3, 2, 4, 1, 3]","[4, 1, 2, 3, 2, 4, 1, 3]","random",384,383,528,527,101,464,463,0,320,319,34,"training",34
"479",1,1,320,319,448,447,368,367,"non",NA,3232,521,521,"[3, 2, 1, 4, 3, 1, 4, 2]","[3, 2, 1, 4, 3, 1, 4, 2]","random",608,607,544,543,101,608,607,0,336,335,35,"training",35
"480",1,1,464,463,672,671,384,383,"non",NA,3328,408,408,"[4, 3, 1, 2, 4, 3, 1, 2]","[4, 3, 1, 2, 4, 3, 1, 2]","random",400,399,496,495,101,416,415,0,496,495,36,"training",36
"481",0,1,NA,NA,NA,NA,NA,NA,"non",NA,0,NA,377,"[4]","[3, 1, 4, 2, 4, 1, 3, 2]","random",NA,NA,NA,NA,101,NA,NA,0,NA,NA,37,"training",37
"482",1,1,448,447,448,447,368,367,"non",NA,3024,398,398,"[4, 1, 3, 2, 1, 3, 2, 4]","[4, 1, 3, 2, 1, 3, 2, 4]","random",368,367,528,527,101,464,463,0,400,399,38,"training",38
"483",1,1,352,351,432,431,512,511,"non",NA,3200,501,501,"[3, 1, 2, 4, 2, 3, 4, 1]","[3, 1, 2, 4, 2, 3, 4, 1]","random",704,704,384,383,101,384,383,0,432,431,39,"training",39
"484",1,1,352,351,512,511,320,319,"non",NA,2912,469,469,"[4, 3, 1, 2, 4, 3, 2, 1]","[4, 3, 1, 2, 4, 3, 2, 1]","random",368,367,528,527,101,416,415,0,416,415,40,"training",40
"485",1,2,448,447,384,383,384,384,"non",NA,2816,394,394,"[1, 3, 2, 4, 1, 3, 2, 4]","[1, 3, 2, 4, 1, 3, 2, 4]","random",304,303,560,559,101,320,319,0,416,415,41,"training",41
"486",0,2,NA,NA,512,511,480,479,"non",NA,2048,519,519,"[2, 4, 1, 3, 4, 2]","[2, 4, 1, 3, 4, 3, 2, 1]","random",NA,NA,NA,335,101,336,335,0,384,383,42,"training",42
"487",0,2,NA,NA,NA,NA,NA,319,"non",NA,992,393,393,"[4, 1, 2, 4]","[4, 1, 2, 3, 2, 4, 1, 3]","random",NA,NA,NA,NA,101,368,367,0,304,303,43,"training",43
"488",1,2,384,384,720,719,464,463,"non",NA,3776,682,682,"[3, 1, 4, 2, 4, 3, 2, 1]","[3, 1, 4, 2, 4, 3, 2, 1]","random",624,623,720,719,101,464,463,0,400,399,44,"training",44
"489",1,2,432,431,560,559,592,591,"non",NA,3360,406,406,"[4, 2, 1, 3, 4, 1, 2, 3]","[4, 2, 1, 3, 4, 1, 2, 3]","random",352,351,496,495,101,448,447,0,480,479,45,"training",45
"490",1,2,480,479,448,447,304,303,"non",NA,3360,388,388,"[4, 3, 1, 2, 3, 2, 4, 1]","[4, 3, 1, 2, 3, 2, 4, 1]","random",592,591,512,511,101,528,527,0,496,496,46,"training",46
"491",1,2,240,240,496,496,336,335,"non",NA,2800,485,485,"[3, 4, 1, 2, 1, 2, 3, 4]","[3, 4, 1, 2, 1, 2, 3, 4]","random",560,559,400,400,101,416,415,0,352,351,47,"training",47
"492",0,2,NA,NA,368,367,352,352,"non",NA,2496,453,453,"[2, 3, 4, 1, 2, 1, 4]","[2, 3, 4, 1, 2, 1, 3, 4]","random",NA,623,512,511,101,320,319,0,320,319,48,"training",48
"493",1,2,304,303,576,575,368,367,"non",NA,3104,409,409,"[1, 2, 3, 4, 2, 1, 3, 4]","[1, 2, 3, 4, 2, 1, 3, 4]","random",640,639,464,463,101,384,383,0,368,367,49,"training",49
"494",1,2,592,591,560,559,336,336,"non",NA,3232,404,404,"[1, 2, 3, 4, 2, 4, 1, 3]","[1, 2, 3, 4, 2, 4, 1, 3]","random",464,463,608,607,101,352,352,0,320,319,50,"training",50
"495",1,2,608,607,560,559,528,527,"non",NA,3696,438,438,"[3, 4, 2, 1, 3, 1, 2, 4]","[3, 4, 2, 1, 3, 1, 2, 4]","random",592,591,512,511,101,464,463,0,432,431,51,"training",51
"496",0,2,NA,NA,NA,NA,NA,NA,"non",NA,432,454,454,"[4, 2]","[4, 3, 2, 1, 2, 1, 3, 4]","random",NA,NA,NA,NA,101,NA,NA,0,NA,431,52,"training",52
"497",1,2,448,448,416,415,416,415,"non",NA,3200,378,378,"[1, 2, 4, 3, 2, 3, 1, 4]","[1, 2, 4, 3, 2, 3, 1, 4]","random",400,399,672,672,101,496,495,0,352,351,53,"training",53
"498",1,2,496,495,480,479,464,463,"non",NA,2928,436,436,"[3, 2, 1, 4, 3, 2, 1, 4]","[3, 2, 1, 4, 3, 2, 1, 4]","random",368,367,320,319,101,416,415,0,384,384,54,"training",54
"499",1,2,256,255,528,527,336,335,"non",NA,2992,452,452,"[4, 3, 2, 1, 4, 1, 3, 2]","[4, 3, 2, 1, 4, 1, 3, 2]","random",672,672,448,447,101,336,335,0,416,415,55,"training",55
"500",1,2,336,335,560,559,368,367,"non",NA,3040,358,358,"[1, 2, 4, 3, 4, 3, 2, 1]","[1, 2, 4, 3, 4, 3, 2, 1]","random",432,431,448,447,101,528,527,0,368,367,56,"training",56
"501",1,2,336,335,416,415,368,367,"non",NA,2640,325,325,"[4, 3, 2, 1, 2, 3, 4, 1]","[4, 3, 2, 1, 2, 3, 4, 1]","random",400,399,400,399,101,352,351,0,368,367,57,"training",57
"502",1,2,336,335,464,463,416,415,"non",NA,3056,373,373,"[1, 3, 2, 4, 1, 2, 3, 4]","[1, 3, 2, 4, 1, 2, 3, 4]","random",368,368,368,367,101,336,335,0,768,767,58,"training",58
"503",1,2,272,271,624,623,352,351,"non",NA,3296,516,516,"[3, 4, 1, 2, 4, 3, 1, 2]","[3, 4, 1, 2, 4, 3, 1, 2]","random",608,607,624,623,101,368,367,0,448,447,59,"training",59
"504",1,2,416,415,560,559,304,303,"non",NA,2736,452,452,"[3, 4, 1, 2, 4, 1, 2, 3]","[3, 4, 1, 2, 4, 1, 2, 3]","random",352,351,448,447,101,336,335,0,320,320,60,"training",60
"505",1,2,272,271,544,543,352,351,"non",NA,3216,500,500,"[3, 2, 4, 1, 4, 1, 3, 2]","[3, 2, 4, 1, 4, 1, 3, 2]","random",688,688,448,447,101,480,480,0,432,431,61,"training",61
"506",1,2,464,463,576,575,320,319,"non",NA,3392,453,453,"[2, 4, 3, 1, 4, 2, 1, 3]","[2, 4, 3, 1, 4, 2, 1, 3]","random",496,495,576,575,101,480,479,0,480,479,62,"training",62
"507",1,2,464,463,368,367,352,351,"non",NA,2992,372,372,"[4, 1, 3, 2, 1, 4, 3, 2]","[4, 1, 3, 2, 1, 4, 3, 2]","random",544,543,464,463,101,480,479,0,320,319,63,"training",63
"508",0,2,NA,NA,624,623,384,383,"non",NA,2592,388,388,"[4, 1, 3, 2, 3, 4, 1]","[4, 1, 3, 2, 3, 4, 2, 1]","random",NA,383,432,431,101,384,383,0,384,383,64,"training",64
"509",1,2,640,639,496,495,368,367,"non",NA,3328,391,391,"[1, 3, 2, 4, 2, 4, 3, 1]","[1, 3, 2, 4, 2, 4, 3, 1]","random",544,543,416,415,101,384,383,0,480,479,65,"training",65
"510",0,2,NA,NA,NA,NA,NA,NA,"non",NA,0,NA,547,"[3]","[4, 2, 3, 1, 4, 1, 2, 3]","random",NA,NA,NA,NA,101,NA,NA,0,NA,NA,66,"training",66
"511",1,2,496,495,528,527,400,399,"non",NA,2800,345,345,"[4, 3, 2, 1, 2, 3, 4, 1]","[4, 3, 2, 1, 2, 3, 4, 1]","random",400,400,336,335,101,336,335,0,304,303,67,"training",67
"512",1,2,304,303,368,367,320,319,"non",NA,2800,533,533,"[1, 4, 3, 2, 1, 4, 2, 3]","[1, 4, 3, 2, 1, 4, 2, 3]","random",368,367,464,463,101,480,479,0,496,495,68,"training",68
"513",1,2,752,751,608,607,320,319,"non",NA,3696,772,772,"[2, 4, 3, 1, 2, 4, 1, 3]","[2, 4, 3, 1, 2, 4, 1, 3]","random",432,431,576,575,101,416,415,0,592,591,69,"training",69
"514",1,2,432,431,400,399,336,335,"non",NA,2896,564,564,"[4, 1, 2, 3, 4, 2, 3, 1]","[4, 1, 2, 3, 4, 2, 3, 1]","random",432,431,496,495,101,464,463,0,336,335,70,"training",70
"515",1,2,512,512,448,447,352,352,"non",NA,3056,420,420,"[4, 1, 2, 3, 1, 4, 2, 3]","[4, 1, 2, 3, 1, 4, 2, 3]","random",416,415,496,495,101,464,463,0,368,367,71,"training",71
"516",1,2,768,767,368,367,368,367,"non",NA,3360,468,468,"[3, 2, 1, 4, 2, 4, 1, 3]","[3, 2, 1, 4, 2, 4, 1, 3]","random",480,479,640,639,101,368,367,0,368,367,72,"training",72
"517",1,2,320,319,544,543,400,399,"non",NA,3264,548,548,"[3, 2, 1, 4, 2, 4, 3, 1]","[3, 2, 1, 4, 2, 4, 3, 1]","random",592,591,624,623,101,400,399,0,384,383,73,"training",73
"518",1,2,432,431,608,607,384,383,"non",NA,3168,388,388,"[1, 2, 4, 3, 4, 1, 2, 3]","[1, 2, 4, 3, 4, 1, 2, 3]","random",432,431,384,383,101,528,527,0,400,399,74,"training",74
"519",1,2,496,495,480,479,352,351,"non",NA,3136,436,436,"[4, 2, 3, 1, 4, 2, 1, 3]","[4, 2, 3, 1, 4, 2, 1, 3]","random",512,512,368,367,101,352,351,0,576,575,75,"training",75
"520",1,2,336,335,496,495,320,319,"non",NA,3280,405,405,"[4, 3, 1, 2, 1, 2, 4, 3]","[4, 3, 1, 2, 1, 2, 4, 3]","random",592,591,400,399,101,528,527,0,608,607,76,"training",76
"521",1,2,336,335,544,543,336,335,"non",NA,3216,467,467,"[2, 1, 3, 4, 2, 4, 3, 1]","[2, 1, 3, 4, 2, 4, 3, 1]","random",544,543,544,543,101,448,447,0,464,463,77,"training",77
"522",1,2,320,319,560,559,384,383,"non",NA,3072,676,676,"[3, 1, 4, 2, 4, 2, 3, 1]","[3, 1, 4, 2, 4, 2, 3, 1]","random",464,463,416,415,101,528,527,0,400,400,78,"training",78
"523",1,2,1392,1391,384,383,432,431,"non",NA,4000,420,420,"[4, 2, 1, 3, 4, 2, 1, 3]","[4, 2, 1, 3, 4, 2, 1, 3]","random",416,415,512,511,101,416,415,0,448,447,79,"training",79
"524",1,2,416,415,608,608,320,319,"non",NA,2960,420,420,"[3, 2, 4, 1, 3, 2, 1, 4]","[3, 2, 4, 1, 3, 2, 1, 4]","random",448,447,400,399,101,432,431,0,336,335,80,"training",80
"525",1,3,496,495,480,479,528,527,"non",NA,3008,475,475,"[3, 1, 2, 4, 2, 3, 1, 4]","[3, 1, 2, 4, 2, 3, 1, 4]","random",336,335,368,367,101,400,399,0,400,399,81,"training",81
"526",1,3,336,335,432,431,320,319,"non",NA,2688,390,390,"[4, 2, 3, 1, 4, 2, 3, 1]","[4, 2, 3, 1, 4, 2, 3, 1]","random",448,447,368,367,101,400,399,0,384,383,82,"training",82
"527",1,3,368,367,416,415,528,527,"non",NA,3536,500,500,"[3, 1, 2, 4, 2, 1, 4, 3]","[3, 1, 2, 4, 2, 1, 4, 3]","random",576,575,464,463,101,832,832,0,352,351,83,"training",83
"528",1,3,384,383,368,367,416,415,"non",NA,2896,403,403,"[4, 1, 2, 3, 1, 4, 2, 3]","[4, 1, 2, 3, 1, 4, 2, 3]","random",480,479,544,544,101,368,367,0,336,335,84,"training",84
"529",1,3,496,495,480,479,432,431,"non",NA,3200,357,357,"[1, 3, 4, 2, 3, 1, 2, 4]","[1, 3, 4, 2, 3, 1, 2, 4]","random",496,495,368,367,101,528,527,0,400,399,85,"training",85
"530",1,3,528,527,656,655,432,432,"non",NA,3520,468,468,"[3, 4, 2, 1, 3, 1, 2, 4]","[3, 4, 2, 1, 3, 1, 2, 4]","random",512,511,464,463,101,384,383,0,544,543,86,"training",86
"531",1,3,336,335,384,383,464,463,"non",NA,3040,516,516,"[3, 2, 1, 4, 2, 4, 3, 1]","[3, 2, 1, 4, 2, 4, 3, 1]","random",528,528,560,559,101,384,383,0,384,384,87,"training",87
"532",1,3,384,383,768,767,384,383,"non",NA,3248,403,403,"[4, 2, 3, 1, 3, 1, 4, 2]","[4, 2, 3, 1, 3, 1, 4, 2]","random",544,543,416,415,101,368,368,0,384,383,88,"training",88
"533",1,3,448,447,560,560,368,367,"non",NA,3360,451,451,"[3, 4, 2, 1, 4, 2, 1, 3]","[3, 4, 2, 1, 4, 2, 1, 3]","random",400,400,544,543,101,528,527,0,512,511,89,"training",89
"534",1,3,288,287,464,463,448,447,"non",NA,2912,357,357,"[2, 4, 1, 3, 4, 2, 3, 1]","[2, 4, 1, 3, 4, 2, 3, 1]","random",496,495,416,415,101,352,351,0,448,447,90,"training",90
"535",0,3,NA,NA,NA,NA,NA,NA,"non",NA,0,NA,403,"[2]","[3, 4, 1, 2, 1, 4, 3, 2]","random",NA,NA,NA,NA,101,NA,NA,0,NA,NA,91,"training",91
"536",1,3,336,335,576,575,352,351,"non",NA,2912,389,389,"[3, 4, 1, 2, 4, 2, 3, 1]","[3, 4, 1, 2, 4, 2, 3, 1]","random",400,399,384,383,101,416,415,0,448,447,92,"training",92
"537",0,3,NA,NA,544,543,400,399,"non",NA,2784,372,372,"[2, 4, 3, 1, 4, 3, 2]","[2, 4, 3, 1, 4, 3, 1, 2]","random",NA,255,576,575,101,512,511,0,496,495,93,"training",93
"538",1,3,560,559,528,527,368,367,"non",NA,3328,456,456,"[2, 4, 3, 1, 4, 3, 1, 2]","[2, 4, 3, 1, 4, 3, 1, 2]","random",400,399,496,495,101,512,511,0,464,463,94,"training",94
"539",0,3,NA,NA,NA,NA,NA,NA,"non",NA,0,NA,420,"[3]","[4, 3, 2, 1, 4, 3, 2, 1]","random",NA,NA,NA,NA,101,NA,NA,0,NA,NA,95,"training",95
"540",1,3,400,399,448,447,400,399,"non",NA,3360,452,452,"[1, 2, 4, 3, 2, 3, 4, 1]","[1, 2, 4, 3, 2, 3, 4, 1]","random",576,575,608,607,101,512,511,0,416,415,96,"training",96
"541",1,3,384,383,544,543,384,383,"non",NA,3168,515,515,"[3, 4, 2, 1, 2, 4, 3, 1]","[3, 4, 2, 1, 2, 4, 3, 1]","random",336,335,544,543,101,496,495,0,480,479,97,"training",97
"542",1,3,416,415,464,463,336,335,"non",NA,2720,500,500,"[3, 4, 1, 2, 3, 4, 1, 2]","[3, 4, 1, 2, 3, 4, 1, 2]","random",400,400,368,367,101,352,351,0,384,383,98,"training",98
"543",1,3,400,399,432,431,480,479,"non",NA,3408,563,563,"[3, 2, 1, 4, 1, 3, 4, 2]","[3, 2, 1, 4, 1, 3, 4, 2]","random",608,607,672,671,101,432,431,0,384,383,99,"training",99
"544",1,3,704,703,400,399,432,431,"non",NA,3584,532,532,"[4, 1, 3, 2, 1, 4, 3, 2]","[4, 1, 3, 2, 1, 4, 3, 2]","random",464,463,640,639,101,560,559,0,384,384,100,"training",100
"545",1,3,336,335,368,367,464,463,"non",NA,3152,499,499,"[4, 2, 1, 3, 2, 4, 3, 1]","[4, 2, 1, 3, 2, 4, 3, 1]","random",576,576,560,559,101,416,416,0,432,431,101,"training",101
"546",1,3,336,335,464,463,464,463,"non",NA,3328,435,435,"[3, 2, 4, 1, 3, 4, 1, 2]","[3, 2, 4, 1, 3, 4, 1, 2]","random",512,511,688,687,101,464,463,0,400,399,102,"training",102
"547",1,3,400,400,976,976,320,319,"non",NA,3664,435,435,"[2, 1, 3, 4, 3, 4, 1, 2]","[2, 1, 3, 4, 3, 4, 1, 2]","random",416,415,688,687,101,432,431,0,432,431,103,"training",103
"548",1,3,304,303,544,543,480,479,"non",NA,3104,531,531,"[3, 4, 1, 2, 1, 2, 3, 4]","[3, 4, 1, 2, 1, 2, 3, 4]","random",528,527,480,479,101,400,399,0,368,367,104,"training",104
"549",0,3,NA,415,400,399,432,431,"non",NA,2944,387,387,"[3, 2, 1, 4, 3, 1, 2, 3]","[3, 2, 1, 4, 3, 1, 2, 4]","random",336,335,448,447,101,352,351,0,560,559,105,"training",105
"550",1,3,352,351,384,383,368,367,"non",NA,3152,421,421,"[1, 4, 3, 2, 1, 2, 3, 4]","[1, 4, 3, 2, 1, 2, 3, 4]","random",480,479,512,511,101,528,527,0,528,527,106,"training",106
"551",0,3,NA,NA,NA,NA,NA,NA,"non",NA,336,355,355,"[3, 2]","[3, 1, 2, 4, 1, 2, 4, 3]","random",NA,NA,NA,NA,101,NA,NA,0,NA,335,107,"training",107
"552",1,3,368,367,768,767,400,399,"non",NA,3280,452,452,"[4, 1, 3, 2, 4, 1, 3, 2]","[4, 1, 3, 2, 4, 1, 3, 2]","random",560,559,400,399,101,448,447,0,336,335,108,"training",108
"553",1,3,416,415,496,495,384,383,"non",NA,3248,371,371,"[2, 3, 4, 1, 4, 1, 3, 2]","[2, 3, 4, 1, 4, 1, 3, 2]","random",528,527,576,575,101,464,463,0,384,383,109,"training",109
"554",1,3,240,239,384,383,384,383,"non",NA,2928,500,500,"[2, 3, 1, 4, 1, 4, 2, 3]","[2, 3, 1, 4, 1, 4, 2, 3]","random",528,527,608,607,101,400,399,0,384,383,110,"training",110
"555",1,3,304,303,624,623,448,447,"non",NA,3424,498,498,"[4, 2, 1, 3, 2, 3, 4, 1]","[4, 2, 1, 3, 2, 3, 4, 1]","random",400,399,672,671,101,496,495,0,480,479,111,"training",111
"556",1,3,384,384,368,367,448,447,"non",NA,3120,432,432,"[3, 2, 1, 4, 1, 3, 4, 2]","[3, 2, 1, 4, 1, 3, 4, 2]","random",560,559,544,543,101,480,479,0,336,335,112,"training",112
"557",1,3,368,367,512,511,384,383,"non",NA,3024,498,498,"[3, 4, 2, 1, 2, 3, 4, 1]","[3, 4, 2, 1, 2, 3, 4, 1]","random",400,399,368,367,101,528,527,0,464,463,113,"training",113
"558",1,3,416,415,416,415,288,287,"non",NA,2912,434,434,"[4, 2, 3, 1, 3, 2, 1, 4]","[4, 2, 3, 1, 3, 2, 1, 4]","random",336,336,592,591,101,416,415,0,448,448,114,"training",114
"559",1,3,544,543,416,415,416,415,"non",NA,3184,435,435,"[3, 4, 1, 2, 3, 1, 2, 4]","[3, 4, 1, 2, 3, 1, 2, 4]","random",528,527,432,431,101,432,431,0,416,415,115,"training",115
"560",1,3,496,495,448,447,560,559,"non",NA,3136,434,434,"[3, 4, 2, 1, 2, 3, 1, 4]","[3, 4, 2, 1, 2, 3, 1, 4]","random",464,463,336,335,101,384,383,0,448,447,116,"training",116
"561",1,3,400,399,784,783,336,335,"non",NA,3568,419,419,"[1, 2, 3, 4, 3, 1, 4, 2]","[1, 2, 3, 4, 3, 1, 4, 2]","random",656,655,624,623,101,336,336,0,432,431,117,"training",117
"562",1,3,416,415,480,479,352,351,"non",NA,3136,419,419,"[4, 2, 3, 1, 3, 4, 1, 2]","[4, 2, 3, 1, 3, 4, 1, 2]","random",352,351,512,511,101,560,559,0,464,463,118,"training",118
"563",1,3,512,511,640,640,368,367,"non",NA,3328,467,467,"[3, 1, 4, 2, 4, 2, 1, 3]","[3, 1, 4, 2, 4, 2, 1, 3]","random",416,415,432,431,101,480,479,0,480,479,119,"training",119
"564",1,3,384,383,368,367,416,415,"non",NA,2688,403,403,"[4, 1, 2, 3, 1, 4, 2, 3]","[4, 1, 2, 3, 1, 4, 2, 3]","random",368,367,448,447,101,400,399,0,304,303,120,"training",120
"565",1,4,448,447,560,559,528,527,"non",NA,3360,507,507,"[3, 1, 2, 4, 1, 3, 4, 2]","[3, 1, 2, 4, 1, 3, 4, 2]","random",512,511,464,463,101,432,432,0,416,415,121,"training",121
"566",0,4,NA,NA,NA,NA,NA,NA,"non",NA,816,516,516,"[3, 4, 1]","[3, 4, 2, 1, 3, 4, 2, 1]","random",NA,NA,NA,NA,101,NA,319,0,496,495,122,"training",122
"567",1,4,432,431,592,592,416,416,"non",NA,3120,452,452,"[3, 1, 4, 2, 4, 2, 1, 3]","[3, 1, 4, 2, 4, 2, 1, 3]","random",432,431,448,447,101,432,431,0,368,367,123,"training",123
"568",1,4,384,383,384,383,448,448,"non",NA,2784,387,387,"[1, 3, 4, 2, 3, 1, 4, 2]","[1, 3, 4, 2, 3, 1, 4, 2]","random",432,431,384,383,101,352,352,0,400,399,124,"training",124
"569",1,4,384,383,560,559,480,479,"non",NA,3424,451,451,"[2, 1, 4, 3, 4, 3, 2, 1]","[2, 1, 4, 3, 4, 3, 2, 1]","random",544,543,576,575,101,480,479,0,400,399,125,"training",125
"570",1,4,416,415,480,480,352,351,"non",NA,3248,564,564,"[2, 1, 3, 4, 2, 3, 1, 4]","[2, 1, 3, 4, 2, 3, 1, 4]","random",432,431,496,495,101,624,623,0,448,447,126,"training",126
"571",1,4,464,463,432,431,368,367,"non",NA,3120,499,499,"[3, 2, 4, 1, 2, 4, 3, 1]","[3, 2, 4, 1, 2, 4, 3, 1]","random",384,383,544,543,101,560,560,0,368,367,127,"training",127
"572",1,4,416,415,448,447,336,335,"non",NA,3184,563,563,"[3, 2, 4, 1, 4, 3, 2, 1]","[3, 2, 4, 1, 4, 3, 2, 1]","random",416,415,720,720,101,480,480,0,368,367,128,"training",128
"573",1,4,288,287,416,415,464,463,"non",NA,3088,387,387,"[1, 3, 4, 2, 3, 2, 4, 1]","[1, 3, 4, 2, 3, 2, 4, 1]","random",496,495,512,511,101,448,447,0,464,463,129,"training",129
"574",1,4,448,447,640,639,352,351,"non",NA,3472,370,370,"[1, 4, 3, 2, 3, 4, 2, 1]","[1, 4, 3, 2, 3, 4, 2, 1]","random",512,511,464,463,101,560,559,0,496,495,130,"training",130
"575",1,4,400,400,528,527,656,655,"non",NA,3296,531,531,"[2, 4, 1, 3, 1, 4, 2, 3]","[2, 4, 1, 3, 1, 4, 2, 3]","random",448,447,560,559,101,336,335,0,368,367,131,"training",131
"576",1,4,336,335,832,832,288,287,"non",NA,3392,371,371,"[2, 1, 3, 4, 3, 1, 4, 2]","[2, 1, 3, 4, 3, 1, 4, 2]","random",592,591,560,559,101,384,383,0,400,399,132,"training",132
"577",1,4,288,287,800,799,352,351,"non",NA,3520,435,435,"[4, 3, 2, 1, 3, 1, 4, 2]","[4, 3, 2, 1, 3, 1, 4, 2]","random",544,543,528,527,101,352,351,0,656,655,133,"training",133
"578",1,4,288,287,544,543,640,639,"non",NA,3344,450,450,"[4, 3, 1, 2, 1, 2, 3, 4]","[4, 3, 1, 2, 1, 2, 3, 4]","random",416,415,672,671,101,432,431,0,352,351,134,"training",134
"579",1,4,416,415,704,703,320,320,"non",NA,3040,419,419,"[2, 1, 3, 4, 3, 2, 1, 4]","[2, 1, 3, 4, 3, 2, 1, 4]","random",384,383,368,367,101,480,479,0,368,367,135,"training",135
"580",1,4,448,447,480,480,336,335,"non",NA,3216,451,451,"[4, 3, 1, 2, 1, 3, 4, 2]","[4, 3, 1, 2, 1, 3, 4, 2]","random",352,351,592,591,101,432,431,0,576,575,136,"training",136
"581",1,4,416,415,464,463,368,367,"non",NA,2928,387,387,"[4, 2, 1, 3, 2, 3, 4, 1]","[4, 2, 1, 3, 2, 3, 4, 1]","random",352,351,512,511,101,384,383,0,432,431,137,"training",137
"582",1,4,368,367,496,495,656,655,"non",NA,3344,467,467,"[2, 4, 3, 1, 4, 3, 2, 1]","[2, 4, 3, 1, 4, 3, 2, 1]","random",400,399,448,447,101,464,463,0,512,511,138,"training",138
"583",1,4,592,591,544,543,352,351,"non",NA,3184,451,451,"[1, 2, 3, 4, 3, 2, 1, 4]","[1, 2, 3, 4, 3, 2, 1, 4]","random",400,399,592,591,101,352,352,0,352,351,139,"training",139
"584",1,4,336,335,480,479,336,335,"non",NA,3024,402,402,"[2, 1, 4, 3, 1, 4, 2, 3]","[2, 1, 4, 3, 1, 4, 2, 3]","random",448,447,576,575,101,448,447,0,400,399,140,"training",140
"585",1,4,352,351,384,383,336,335,"non",NA,2736,371,371,"[1, 4, 2, 3, 1, 3, 4, 2]","[1, 4, 2, 3, 1, 3, 4, 2]","random",400,399,448,447,101,416,415,0,400,399,141,"training",141
"586",1,4,496,495,464,463,432,431,"non",NA,2816,403,403,"[4, 1, 2, 3, 2, 1, 4, 3]","[4, 1, 2, 3, 2, 1, 4, 3]","random",384,384,368,367,101,384,383,0,288,287,142,"training",142
"587",1,4,384,383,464,463,336,335,"non",NA,2912,739,739,"[3, 2, 4, 1, 4, 3, 2, 1]","[3, 2, 4, 1, 4, 3, 2, 1]","random",288,287,592,591,101,464,463,0,384,383,143,"training",143
"588",1,4,384,383,368,367,352,351,"non",NA,2800,434,434,"[3, 1, 4, 2, 3, 2, 1, 4]","[3, 1, 4, 2, 3, 2, 1, 4]","random",384,383,560,559,101,448,447,0,304,303,144,"training",144
"589",1,4,368,367,544,543,512,511,"non",NA,3664,435,435,"[4, 3, 1, 2, 1, 3, 4, 2]","[4, 3, 1, 2, 1, 3, 4, 2]","random",496,495,624,623,101,544,543,0,576,575,145,"training",145
"590",1,4,576,575,448,447,336,335,"non",NA,3136,450,450,"[4, 1, 2, 3, 2, 1, 4, 3]","[4, 1, 2, 3, 2, 1, 4, 3]","random",464,463,544,543,101,480,479,0,288,286,146,"training",146
"591",1,4,352,351,592,591,288,287,"non",NA,2720,386,386,"[4, 2, 3, 1, 4, 2, 3, 1]","[4, 2, 3, 1, 4, 2, 3, 1]","random",320,319,480,479,101,320,319,0,368,367,147,"training",147
"592",1,4,320,319,528,528,336,335,"non",NA,2880,338,338,"[1, 4, 2, 3, 2, 3, 1, 4]","[1, 4, 2, 3, 2, 3, 1, 4]","random",496,496,464,463,101,336,335,0,400,399,148,"training",148
"593",1,4,448,448,352,351,368,367,"non",NA,3040,386,386,"[2, 3, 1, 4, 2, 4, 1, 3]","[2, 3, 1, 4, 2, 4, 1, 3]","random",544,543,592,591,101,400,399,0,336,335,149,"training",149
"594",1,4,368,367,464,463,416,415,"non",NA,3264,418,418,"[2, 4, 1, 3, 2, 4, 3, 1]","[2, 4, 1, 3, 2, 4, 3, 1]","random",640,639,464,463,101,384,383,0,528,527,150,"training",150
"595",1,4,528,527,576,575,304,303,"non",NA,3248,386,386,"[2, 1, 3, 4, 3, 1, 4, 2]","[2, 1, 3, 4, 3, 1, 4, 2]","random",512,511,448,447,101,432,431,0,448,447,151,"training",151
"596",1,4,384,383,464,463,368,368,"non",NA,2784,434,434,"[4, 1, 3, 2, 4, 2, 3, 1]","[4, 1, 3, 2, 4, 2, 3, 1]","random",432,431,368,367,101,432,431,0,336,335,152,"training",152
"597",0,4,NA,NA,NA,NA,NA,NA,"non",NA,352,370,370,"[2, 3]","[2, 4, 3, 1, 4, 2, 1, 3]","random",NA,NA,NA,NA,101,NA,NA,0,NA,351,153,"training",153
"598",1,4,384,383,512,511,352,352,"non",NA,3008,402,402,"[4, 2, 3, 1, 2, 4, 3, 1]","[4, 2, 3, 1, 2, 4, 3, 1]","random",464,463,496,495,101,368,367,0,432,431,154,"training",154
"599",1,4,400,399,512,511,368,367,"non",NA,3472,498,498,"[4, 1, 3, 2, 3, 4, 2, 1]","[4, 1, 3, 2, 3, 4, 2, 1]","random",496,495,624,623,101,464,464,0,608,607,155,"training",155
"600",1,4,448,447,480,479,416,415,"non",NA,3104,418,418,"[2, 4, 1, 3, 4, 2, 1, 3]","[2, 4, 1, 3, 4, 2, 1, 3]","random",384,383,496,495,101,448,447,0,432,431,156,"training",156
"601",1,4,368,367,400,399,528,527,"non",NA,2880,372,372,"[1, 3, 4, 2, 1, 4, 2, 3]","[1, 3, 4, 2, 1, 4, 2, 3]","random",368,368,464,463,101,384,383,0,368,367,157,"training",157
"602",1,4,368,367,368,368,320,319,"non",NA,2832,370,370,"[1, 3, 2, 4, 2, 3, 4, 1]","[1, 3, 2, 4, 2, 3, 4, 1]","random",464,463,544,544,101,368,367,0,400,399,158,"training",158
"603",1,4,320,320,384,383,320,319,"non",NA,2736,387,387,"[1, 4, 2, 3, 1, 2, 3, 4]","[1, 4, 2, 3, 1, 2, 3, 4]","random",368,367,512,511,101,352,351,0,480,479,159,"training",159
