"","accuracy","block","eight_IKI","eight_RT","five_IKI","five_RT","four_IKI","four_RT","group","max_time","movement_time","one_IKI","one_RT","pressed","reward","seq_keys","sequence","seven_IKI","seven_RT","six_IKI","six_RT","subject","three_IKI","three_RT","too_slow","two_IKI","two_RT","t","sess","trial"
"1",0,1,NA,NA,NA,NA,NA,NA,"rew",4034,0,NA,448,"[3]",10,"[2, 1, 4, 2, 3, 1, 4, 3]","B",NA,NA,NA,NA,203,NA,NA,0,NA,NA,1,"reward",1
"2",1,1,480,479,432,431,464,463,"rew",4034,3168,484,484,"[4, 3, 1, 4, 2, 3, 1, 2]",30,"[4, 3, 1, 4, 2, 3, 1, 2]","C",480,480,432,431,203,448,447,0,432,431,1,"reward",1
"3",1,1,480,479,433,432,496,495,"rew",4034,3408,567,567,"[2, 1, 4, 2, 3, 1, 4, 3]",10,"[2, 1, 4, 2, 3, 1, 4, 3]","B",496,495,495,495,203,560,559,0,448,447,2,"reward",2
"4",0,1,NA,NA,481,481,464,463,"rew",4034,2927,629,629,"[2, 1, 4, 2, 3, 1, 4]",10,"[2, 1, 4, 2, 3, 1, 4, 3]","B",512,511,463,463,203,448,447,1,559,559,3,"reward",3
"5",1,1,464,464,368,368,432,431,"rew",4034,2912,457,457,"[4, 3, 1, 4, 2, 3, 1, 2]",30,"[4, 3, 1, 4, 2, 3, 1, 2]","C",383,383,385,384,203,448,447,0,432,431,2,"reward",2
"6",1,1,304,303,431,431,385,384,"rew",4034,3055,548,548,"[1, 4, 2, 3, 1, 3, 4, 2]",5,"[1, 4, 2, 3, 1, 3, 4, 2]","A",432,431,608,607,203,351,351,0,544,544,1,"reward",1
"7",1,1,304,304,416,415,400,400,"rew",4034,2880,452,452,"[1, 4, 2, 3, 1, 3, 4, 2]",5,"[1, 4, 2, 3, 1, 3, 4, 2]","A",416,416,528,527,203,383,383,0,433,432,2,"reward",2
"8",1,1,432,431,400,399,480,480,"rew",4034,2944,516,516,"[4, 3, 1, 4, 2, 3, 1, 2]",30,"[4, 3, 1, 4, 2, 3, 1, 2]","C",384,384,368,367,203,415,415,0,465,464,3,"reward",3
"9",1,1,288,288,367,367,433,432,"rew",4034,2864,482,482,"[1, 4, 2, 3, 1, 3, 4, 2]",5,"[1, 4, 2, 3, 1, 3, 4, 2]","A",432,431,528,527,203,336,335,0,480,479,3,"reward",3
"10",1,1,448,447,433,432,399,399,"rew",4034,3008,435,435,"[2, 1, 4, 2, 3, 1, 4, 3]",10,"[2, 1, 4, 2, 3, 1, 4, 3]","B",400,399,399,399,203,497,496,0,432,431,4,"reward",4
"11",1,1,432,431,384,384,464,463,"rew",4034,2992,483,483,"[4, 3, 1, 4, 2, 3, 1, 2]",30,"[4, 3, 1, 4, 2, 3, 1, 2]","C",367,367,385,384,203,432,431,0,528,527,4,"reward",4
"12",1,1,513,511,416,416,400,399,"rew",4034,2993,498,498,"[2, 1, 4, 2, 3, 1, 4, 3]",10,"[2, 1, 4, 2, 3, 1, 4, 3]","B",416,415,416,415,203,448,448,0,384,383,5,"reward",5
"13",1,1,480,479,400,399,400,399,"rew",4034,3007,482,482,"[2, 1, 4, 2, 3, 1, 4, 3]",10,"[2, 1, 4, 2, 3, 1, 4, 3]","B",432,431,432,431,203,431,431,0,432,432,6,"reward",6
"14",1,1,417,417,447,447,401,401,"rew",4034,2880,457,457,"[2, 1, 4, 2, 3, 1, 4, 3]",10,"[2, 1, 4, 2, 3, 1, 4, 3]","B",368,368,400,399,203,431,431,0,416,416,7,"reward",7
"15",1,1,335,335,432,431,416,415,"rew",4034,2976,529,529,"[1, 4, 2, 3, 1, 3, 4, 2]",5,"[1, 4, 2, 3, 1, 3, 4, 2]","A",433,433,560,559,203,383,383,0,417,416,4,"reward",4
"16",0,1,NA,351,384,383,416,415,"rew",4034,2895,483,483,"[4, 3, 1, 4, 2, 3, 1, 4]",30,"[4, 3, 1, 4, 2, 3, 1, 2]","C",384,383,368,367,203,448,447,0,543,543,5,"reward",5
"17",1,1,335,335,384,383,400,399,"rew",4034,2832,453,453,"[1, 4, 2, 3, 1, 3, 4, 2]",5,"[1, 4, 2, 3, 1, 3, 4, 2]","A",432,432,481,481,203,384,383,0,416,415,5,"reward",5
"18",1,1,352,352,415,415,401,400,"rew",4034,2943,436,436,"[1, 4, 2, 3, 1, 3, 4, 2]",5,"[1, 4, 2, 3, 1, 3, 4, 2]","A",416,415,512,511,203,384,384,0,463,463,6,"reward",6
"19",1,1,336,336,400,399,432,431,"rew",4034,2911,468,468,"[1, 4, 2, 3, 1, 3, 4, 2]",5,"[1, 4, 2, 3, 1, 3, 4, 2]","A",432,432,512,511,203,383,383,0,416,416,7,"reward",7
"20",1,1,479,479,432,431,399,399,"rew",4034,3056,465,465,"[2, 1, 4, 2, 3, 1, 4, 3]",10,"[2, 1, 4, 2, 3, 1, 4, 3]","B",433,431,432,431,203,433,432,0,448,447,8,"reward",8
"21",1,1,383,383,481,480,432,432,"rew",4034,3088,658,658,"[1, 4, 2, 3, 1, 3, 4, 2]",5,"[1, 4, 2, 3, 1, 3, 4, 2]","A",432,432,528,528,203,432,431,0,400,399,8,"reward",8
"22",1,1,400,399,400,399,416,416,"rew",4034,2912,464,464,"[2, 1, 4, 2, 3, 1, 4, 3]",10,"[2, 1, 4, 2, 3, 1, 4, 3]","B",431,431,417,416,203,400,399,0,448,447,9,"reward",9
"23",1,1,400,399,383,383,433,432,"rew",4034,2848,495,495,"[2, 1, 4, 2, 3, 1, 4, 3]",10,"[2, 1, 4, 2, 3, 1, 4, 3]","B",400,400,416,415,203,416,416,0,400,399,10,"reward",10
"24",0,1,416,415,416,416,481,480,"rew",3426,2991,525,525,"[4, 3, 1, 4, 2, 3, 1, 2]",30,"[4, 3, 1, 4, 2, 3, 1, 2]","C",383,383,352,351,203,432,432,1,511,511,6,"reward",6
"25",1,1,321,321,415,415,385,385,"rew",3426,2865,544,544,"[1, 4, 2, 3, 1, 3, 4, 2]",5,"[1, 4, 2, 3, 1, 3, 4, 2]","A",400,399,496,495,203,384,383,0,464,463,9,"reward",9
"26",1,1,384,383,304,303,511,511,"rew",3425,2864,396,396,"[4, 3, 1, 4, 2, 3, 1, 2]",30,"[4, 3, 1, 4, 2, 3, 1, 2]","C",320,320,336,336,203,513,512,0,496,495,7,"reward",7
"27",1,1,320,320,416,416,368,367,"rew",3380,2799,511,511,"[1, 4, 2, 3, 1, 3, 4, 2]",5,"[1, 4, 2, 3, 1, 3, 4, 2]","A",384,383,528,528,203,384,383,0,399,399,10,"reward",10
"28",0,1,NA,NA,NA,NA,NA,NA,"rew",3394,944,411,411,"[4, 3, 2]",30,"[4, 3, 1, 4, 2, 3, 1, 2]","C",NA,NA,NA,NA,203,NA,367,0,576,575,8,"reward",8
"29",0,1,464,463,367,367,416,416,"rew",3394,2832,624,624,"[2, 1, 4, 2, 3, 1, 4, 3]",10,"[2, 1, 4, 2, 3, 1, 4, 3]","B",399,399,369,369,203,401,400,1,416,415,11,"reward",11
"30",1,1,496,495,400,399,432,431,"rew",3394,2832,400,400,"[4, 3, 1, 4, 2, 3, 1, 2]",30,"[4, 3, 1, 4, 2, 3, 1, 2]","C",352,352,336,336,203,400,399,0,416,415,9,"reward",9
"31",1,1,432,431,352,351,432,431,"rew",3379,2768,540,540,"[2, 1, 4, 2, 3, 1, 4, 3]",10,"[2, 1, 4, 2, 3, 1, 4, 3]","B",400,400,384,384,203,384,384,0,384,383,12,"reward",12
"32",1,1,321,320,367,367,384,384,"rew",3393,2736,530,530,"[1, 4, 2, 3, 1, 3, 4, 2]",5,"[1, 4, 2, 3, 1, 3, 4, 2]","A",416,415,496,495,203,369,368,0,383,383,11,"reward",11
"33",0,1,400,399,336,335,448,447,"rew",3362,2800,577,577,"[4, 3, 1, 4, 2, 3, 1, 2]",30,"[4, 3, 1, 4, 2, 3, 1, 2]","C",335,335,385,384,203,400,399,1,496,495,10,"reward",10
"34",1,1,384,383,352,352,415,415,"rew",3362,2672,479,479,"[4, 3, 1, 4, 2, 3, 1, 2]",30,"[4, 3, 1, 4, 2, 3, 1, 2]","C",303,303,337,336,203,417,417,0,464,463,11,"reward",11
"35",1,1,384,383,351,351,497,496,"rew",3359,2736,459,459,"[4, 3, 1, 4, 2, 3, 1, 2]",30,"[4, 3, 1, 4, 2, 3, 1, 2]","C",320,319,352,351,203,368,367,0,464,463,12,"reward",12
"36",1,1,240,239,400,399,368,367,"rew",3344,2704,460,460,"[1, 4, 2, 3, 1, 3, 4, 2]",5,"[1, 4, 2, 3, 1, 3, 4, 2]","A",399,399,593,592,203,320,319,0,384,383,12,"reward",12
"37",1,2,400,399,400,400,369,368,"rew",3332,2720,481,481,"[2, 1, 4, 2, 3, 1, 4, 3]",10,"[2, 1, 4, 2, 3, 1, 4, 3]","B",400,399,367,367,203,400,399,0,384,383,13,"reward",13
"38",1,2,401,400,320,319,399,399,"rew",3316,2673,445,445,"[4, 3, 1, 4, 2, 3, 1, 2]",30,"[4, 3, 1, 4, 2, 3, 1, 2]","C",352,351,352,352,203,385,384,0,464,463,13,"reward",13
"39",1,2,255,255,384,383,352,351,"rew",3297,2624,475,475,"[1, 4, 2, 3, 1, 3, 4, 2]",5,"[1, 4, 2, 3, 1, 3, 4, 2]","A",417,416,528,527,203,352,351,0,335,335,13,"reward",13
"40",1,2,240,240,368,367,352,351,"rew",3300,2624,461,461,"[1, 4, 2, 3, 1, 3, 4, 2]",5,"[1, 4, 2, 3, 1, 3, 4, 2]","A",417,416,560,559,203,336,335,0,351,351,14,"reward",14
"41",1,2,384,383,336,336,464,463,"rew",3264,2720,508,508,"[4, 3, 1, 4, 2, 3, 1, 2]",30,"[4, 3, 1, 4, 2, 3, 1, 2]","C",319,319,369,368,203,367,367,0,481,480,14,"reward",14
"42",0,2,368,368,400,399,400,399,"rew",3236,2753,490,490,"[4, 3, 1, 4, 2, 3, 1, 2]",30,"[4, 3, 1, 4, 2, 3, 1, 2]","C",353,352,352,352,203,384,383,1,496,495,15,"reward",15
"43",1,2,208,207,352,351,336,335,"rew",3236,2544,478,478,"[1, 4, 2, 3, 1, 3, 4, 2]",5,"[1, 4, 2, 3, 1, 3, 4, 2]","A",384,383,608,608,203,352,352,0,304,303,15,"reward",15
"44",1,2,224,223,384,383,352,351,"rew",3211,2559,556,556,"[1, 4, 2, 3, 1, 3, 4, 2]",5,"[1, 4, 2, 3, 1, 3, 4, 2]","A",400,399,496,495,203,352,351,0,351,351,16,"reward",16
"45",1,2,192,191,368,367,336,336,"rew",3214,2704,444,444,"[1, 4, 2, 3, 1, 3, 4, 2]",5,"[1, 4, 2, 3, 1, 3, 4, 2]","A",544,543,560,559,203,335,335,0,369,368,17,"reward",17
"46",0,2,384,384,256,255,496,495,"rew",3198,2816,493,493,"[4, 3, 1, 4, 2, 3, 1, 2]",30,"[4, 3, 1, 4, 2, 3, 1, 2]","C",304,303,304,303,203,512,511,1,560,559,16,"reward",16
"47",1,2,399,399,224,223,432,431,"rew",3198,2512,513,513,"[4, 3, 1, 4, 2, 3, 1, 2]",30,"[4, 3, 1, 4, 2, 3, 1, 2]","C",257,256,368,368,203,384,383,0,448,447,17,"reward",17
"48",0,2,NA,192,288,287,400,400,"rew",3198,2336,394,394,"[2, 1, 4, 2, 3, 1, 4, 2]",10,"[2, 1, 4, 2, 3, 1, 4, 3]","B",416,415,336,335,203,383,383,0,321,320,14,"reward",14
"49",1,2,209,208,352,351,384,383,"rew",3198,2737,461,461,"[1, 4, 2, 3, 1, 3, 4, 2]",5,"[1, 4, 2, 3, 1, 3, 4, 2]","A",527,527,609,609,203,336,335,0,320,319,18,"reward",18
"50",0,2,433,433,368,367,367,367,"rew",3198,2736,476,476,"[2, 1, 4, 2, 3, 1, 4, 3]",10,"[2, 1, 4, 2, 3, 1, 4, 3]","B",432,431,416,416,203,385,384,1,335,335,15,"reward",15
"51",1,2,257,256,368,367,351,351,"rew",3198,2545,492,492,"[1, 4, 2, 3, 1, 3, 4, 2]",5,"[1, 4, 2, 3, 1, 3, 4, 2]","A",416,415,480,479,203,352,352,0,321,320,19,"reward",19
"52",0,2,NA,304,288,287,432,431,"rew",3182,2497,474,474,"[4, 3, 1, 4, 2, 3, 1, 4]",30,"[4, 3, 1, 4, 2, 3, 1, 2]","C",304,303,352,351,203,383,383,0,433,432,18,"reward",18
"53",0,2,448,447,288,287,400,400,"rew",3182,2800,445,445,"[4, 3, 1, 4, 2, 3, 1, 2]",30,"[4, 3, 1, 4, 2, 3, 1, 2]","C",304,304,352,351,203,464,463,1,544,543,19,"reward",19
"54",0,2,NA,NA,NA,NA,NA,NA,"rew",3182,544,412,412,"[4, 4]",30,"[4, 3, 1, 4, 2, 3, 1, 2]","C",NA,NA,NA,NA,203,NA,NA,0,NA,543,20,"reward",20
"55",1,2,321,320,336,335,416,415,"rew",3182,2513,508,508,"[2, 1, 4, 2, 3, 1, 4, 3]",10,"[2, 1, 4, 2, 3, 1, 4, 3]","B",352,351,384,383,203,368,367,0,336,335,16,"reward",16
"56",0,2,NA,NA,NA,NA,NA,NA,"rew",3182,335,474,474,"[4, 2]",30,"[4, 3, 1, 4, 2, 3, 1, 2]","C",NA,NA,NA,NA,203,NA,NA,0,NA,335,21,"reward",21
"57",1,2,352,351,337,336,336,336,"rew",3182,2464,415,415,"[2, 1, 4, 2, 3, 1, 4, 3]",10,"[2, 1, 4, 2, 3, 1, 4, 3]","B",368,367,335,335,203,384,383,0,352,351,17,"reward",17
"58",1,2,384,383,352,351,352,351,"rew",3151,2528,458,458,"[2, 1, 4, 2, 3, 1, 4, 3]",10,"[2, 1, 4, 2, 3, 1, 4, 3]","B",368,367,400,399,203,367,367,0,305,304,18,"reward",18
"59",0,2,416,416,401,400,383,383,"rew",3147,2896,618,618,"[4, 3, 1, 4, 2, 3, 1, 2]",30,"[4, 3, 1, 4, 2, 3, 1, 2]","C",352,351,335,335,203,497,495,1,512,511,22,"reward",22
"60",1,2,240,240,352,351,399,399,"rew",3147,2592,461,461,"[1, 4, 2, 3, 1, 3, 4, 2]",5,"[1, 4, 2, 3, 1, 3, 4, 2]","A",384,383,512,512,203,353,352,0,352,351,20,"reward",20
"61",1,2,256,256,384,383,352,351,"rew",3099,2544,459,459,"[1, 4, 2, 3, 1, 3, 4, 2]",5,"[1, 4, 2, 3, 1, 3, 4, 2]","A",399,399,481,480,203,336,335,0,336,335,21,"reward",21
"62",0,2,NA,NA,NA,NA,NA,NA,"rew",3085,816,393,393,"[4, 3, 2]",30,"[4, 3, 1, 4, 2, 3, 1, 2]","C",NA,NA,NA,NA,203,NA,288,0,528,527,23,"reward",23
"63",1,2,432,432,369,368,384,383,"rew",3085,2640,430,430,"[2, 1, 4, 2, 3, 1, 4, 3]",10,"[2, 1, 4, 2, 3, 1, 4, 3]","B",319,319,400,400,203,352,351,0,384,383,19,"reward",19
"64",0,2,336,336,401,400,368,368,"rew",3085,2592,522,522,"[2, 1, 4, 2, 3, 1, 4, 3]",10,"[2, 1, 4, 2, 3, 1, 4, 3]","B",368,367,367,367,203,368,367,1,384,383,20,"reward",20
"65",1,2,352,351,367,367,353,351,"rew",3085,2496,442,442,"[2, 1, 4, 2, 3, 1, 4, 3]",10,"[2, 1, 4, 2, 3, 1, 4, 3]","B",352,351,368,367,203,351,351,0,353,352,21,"reward",21
"66",0,2,NA,NA,352,352,337,337,"rew",3053,1776,472,472,"[1, 4, 2, 3, 1, 4]",5,"[1, 4, 2, 3, 1, 3, 4, 2]","A",NA,NA,NA,384,203,367,367,0,336,336,22,"reward",22
"67",1,2,304,304,385,384,367,367,"rew",3053,2607,444,444,"[1, 4, 2, 3, 1, 3, 4, 2]",5,"[1, 4, 2, 3, 1, 3, 4, 2]","A",384,383,463,463,203,369,368,0,335,335,23,"reward",23
"68",1,2,335,335,351,351,368,368,"rew",3053,2544,474,474,"[2, 1, 4, 2, 3, 1, 4, 3]",10,"[2, 1, 4, 2, 3, 1, 4, 3]","B",369,369,384,383,203,384,384,0,353,352,22,"reward",22
"69",0,2,NA,NA,NA,NA,NA,NA,"rew",3020,480,503,503,"[4, 4]",30,"[4, 3, 1, 4, 2, 3, 1, 2]","C",NA,NA,NA,NA,203,NA,NA,0,NA,479,24,"reward",24
"70",0,2,NA,NA,304,304,224,223,"rew",3020,1648,654,654,"[1, 4, 2, 3, 1, 4]",5,"[1, 4, 2, 3, 1, 3, 4, 2]","A",NA,NA,NA,351,203,384,383,0,384,383,24,"reward",24
"71",1,2,303,303,320,320,352,351,"rew",3020,2383,429,429,"[2, 1, 4, 2, 3, 1, 4, 3]",10,"[2, 1, 4, 2, 3, 1, 4, 3]","B",368,368,369,368,203,352,351,0,319,319,23,"reward",23
"72",1,2,304,304,304,303,351,351,"rew",3006,2303,411,411,"[2, 1, 4, 2, 3, 1, 4, 3]",10,"[2, 1, 4, 2, 3, 1, 4, 3]","B",368,368,304,304,203,336,336,0,336,335,24,"reward",24
"73",1,3,223,223,336,335,320,319,"rew",3005,2432,464,464,"[1, 4, 2, 3, 1, 3, 4, 2]",5,"[1, 4, 2, 3, 1, 3, 4, 2]","A",385,384,480,479,203,336,335,0,352,351,25,"reward",25
"74",0,3,NA,NA,NA,NA,NA,NA,"rew",3005,320,441,441,"[2, 4]",10,"[2, 1, 4, 2, 3, 1, 4, 3]","B",NA,NA,NA,NA,203,NA,NA,0,NA,320,25,"reward",25
"75",1,3,400,399,336,335,319,319,"rew",3005,2544,411,411,"[2, 1, 4, 2, 3, 1, 4, 3]",10,"[2, 1, 4, 2, 3, 1, 4, 3]","B",384,384,368,367,203,385,384,0,352,351,26,"reward",26
"76",1,3,320,319,368,368,351,351,"rew",3003,2464,448,448,"[2, 1, 4, 2, 3, 1, 4, 3]",10,"[2, 1, 4, 2, 3, 1, 4, 3]","B",351,351,385,385,203,369,368,0,320,319,27,"reward",27
"77",0,3,385,385,304,304,480,480,"rew",3002,2689,474,474,"[4, 3, 1, 4, 2, 3, 1, 2]",30,"[4, 3, 1, 4, 2, 3, 1, 2]","C",304,303,320,319,203,448,447,1,448,447,25,"reward",25
"78",0,3,NA,NA,NA,NA,NA,NA,"rew",3002,529,447,447,"[4, 4]",30,"[4, 3, 1, 4, 2, 3, 1, 2]","C",NA,NA,NA,NA,203,NA,NA,0,NA,528,26,"reward",26
"79",0,3,384,384,304,303,464,463,"rew",3002,2689,429,429,"[4, 3, 1, 4, 2, 3, 1, 2]",30,"[4, 3, 1, 4, 2, 3, 1, 2]","C",289,288,352,352,203,480,480,1,416,415,27,"reward",27
"80",0,3,NA,NA,NA,NA,NA,NA,"rew",3002,0,NA,541,"[2]",5,"[1, 4, 2, 3, 1, 3, 4, 2]","A",NA,NA,NA,NA,203,NA,NA,0,NA,NA,26,"reward",26
"81",0,3,NA,160,304,303,383,383,"rew",3002,2433,363,363,"[2, 1, 4, 2, 3, 1, 4, 2]",10,"[2, 1, 4, 2, 3, 1, 4, 3]","B",512,511,368,368,203,369,368,0,336,335,28,"reward",28
"82",0,3,240,239,400,399,336,335,"rew",3002,2608,426,426,"[1, 4, 2, 3, 1, 3, 4, 2]",5,"[1, 4, 2, 3, 1, 3, 4, 2]","A",400,399,512,511,203,383,382,1,337,336,27,"reward",27
"83",0,3,240,239,368,368,351,351,"rew",3002,2528,506,506,"[1, 4, 2, 3, 1, 3, 4, 2]",5,"[1, 4, 2, 3, 1, 3, 4, 2]","A",368,367,480,480,203,385,383,1,336,335,28,"reward",28
"84",0,3,NA,NA,NA,NA,NA,287,"rew",3002,1216,379,379,"[4, 3, 1, 3]",30,"[4, 3, 1, 4, 2, 3, 1, 2]","C",NA,NA,NA,NA,203,449,449,0,480,479,28,"reward",28
"85",0,3,NA,NA,465,465,367,367,"rew",3002,1888,460,460,"[1, 4, 2, 3, 1, 4]",5,"[1, 4, 2, 3, 1, 3, 4, 2]","A",NA,NA,NA,303,203,369,368,0,384,383,29,"reward",29
"86",1,3,321,321,384,383,336,335,"rew",3002,2528,443,443,"[2, 1, 4, 2, 3, 1, 4, 3]",10,"[2, 1, 4, 2, 3, 1, 4, 3]","B",383,383,369,368,203,384,383,0,351,351,29,"reward",29
"87",0,3,272,271,384,383,352,351,"rew",2976,2704,413,413,"[1, 4, 2, 3, 1, 3, 4, 2]",5,"[1, 4, 2, 3, 1, 3, 4, 2]","A",432,431,544,543,203,352,352,1,368,367,30,"reward",30
"88",1,3,289,289,352,352,353,352,"rew",2976,2529,369,369,"[1, 4, 2, 3, 1, 3, 4, 2]",5,"[1, 4, 2, 3, 1, 3, 4, 2]","A",320,319,463,463,203,416,415,0,336,335,31,"reward",31
"89",0,3,319,319,383,383,369,368,"rew",2972,2607,605,605,"[2, 1, 4, 2, 3, 1, 4, 3]",10,"[2, 1, 4, 2, 3, 1, 4, 3]","B",384,384,369,369,203,367,367,1,416,416,30,"reward",30
"90",0,3,NA,NA,384,384,336,335,"rew",2972,1904,488,488,"[1, 4, 2, 3, 1, 4]",5,"[1, 4, 2, 3, 1, 3, 4, 2]","A",NA,NA,NA,479,203,352,351,0,352,351,32,"reward",32
"91",0,3,NA,303,336,336,431,431,"rew",2972,2720,440,440,"[4, 3, 1, 4, 2, 3, 1, 4]",30,"[4, 3, 1, 4, 2, 3, 1, 2]","C",320,319,336,335,203,481,480,0,512,511,29,"reward",29
"92",1,3,320,319,368,367,368,367,"rew",2972,2511,458,458,"[2, 1, 4, 2, 3, 1, 4, 3]",10,"[2, 1, 4, 2, 3, 1, 4, 3]","B",384,383,368,368,203,352,352,0,351,351,31,"reward",31
"93",0,3,353,352,335,335,433,432,"rew",2976,2672,359,359,"[2, 1, 4, 2, 3, 1, 4, 3]",10,"[2, 1, 4, 2, 3, 1, 4, 3]","B",447,447,385,385,203,384,384,1,335,335,32,"reward",32
"94",0,3,191,191,400,400,319,319,"rew",2976,2592,426,426,"[1, 4, 2, 3, 1, 3, 4, 2]",5,"[1, 4, 2, 3, 1, 3, 4, 2]","A",449,448,480,480,203,369,368,1,384,383,33,"reward",33
"95",0,3,NA,303,303,303,449,448,"rew",2976,2688,441,441,"[4, 3, 1, 4, 2, 3, 1, 4]",30,"[4, 3, 1, 4, 2, 3, 1, 2]","C",305,304,288,287,203,464,463,0,576,575,30,"reward",30
"96",0,3,368,367,320,319,368,367,"rew",2976,2575,464,464,"[2, 1, 4, 2, 3, 1, 4, 3]",10,"[2, 1, 4, 2, 3, 1, 4, 3]","B",400,399,416,416,203,352,351,1,351,351,33,"reward",33
"97",0,3,NA,NA,383,383,337,337,"rew",2976,1775,413,413,"[1, 4, 2, 3, 1, 4]",5,"[1, 4, 2, 3, 1, 3, 4, 2]","A",NA,NA,NA,367,203,352,352,0,335,335,34,"reward",34
"98",0,3,NA,NA,NA,NA,NA,NA,"rew",2976,784,440,440,"[4, 3, 2]",30,"[4, 3, 1, 4, 2, 3, 1, 2]","C",NA,NA,NA,NA,203,NA,319,0,464,463,31,"reward",31
"99",0,3,NA,NA,401,401,320,319,"rew",2976,1823,445,445,"[1, 4, 2, 3, 1, 4]",5,"[1, 4, 2, 3, 1, 3, 4, 2]","A",NA,NA,NA,367,203,383,383,0,352,352,35,"reward",35
"100",0,3,399,398,353,352,448,447,"rew",2976,2816,377,377,"[4, 3, 1, 4, 2, 3, 1, 2]",30,"[4, 3, 1, 4, 2, 3, 1, 2]","C",305,304,303,303,203,495,495,1,513,512,32,"reward",32
"101",1,3,304,303,351,351,385,384,"rew",2976,2479,417,417,"[2, 1, 4, 2, 3, 1, 4, 3]",10,"[2, 1, 4, 2, 3, 1, 4, 3]","B",352,351,352,351,203,384,383,0,351,351,34,"reward",34
"102",0,3,432,431,335,335,401,400,"rew",2972,2800,412,412,"[4, 3, 1, 4, 2, 3, 1, 2]",30,"[4, 3, 1, 4, 2, 3, 1, 2]","C",368,367,352,352,203,416,415,1,496,495,33,"reward",33
"103",1,3,287,287,368,368,336,335,"rew",2972,2368,426,426,"[2, 1, 4, 2, 3, 1, 4, 3]",10,"[2, 1, 4, 2, 3, 1, 4, 3]","B",353,352,368,367,203,320,319,0,336,335,35,"reward",35
"104",0,3,NA,NA,NA,NA,NA,NA,"rew",2956,496,444,444,"[4, 4]",30,"[4, 3, 1, 4, 2, 3, 1, 2]","C",NA,NA,NA,NA,203,NA,NA,0,NA,495,34,"reward",34
"105",0,3,NA,143,321,320,368,367,"rew",2956,2432,393,393,"[2, 1, 4, 2, 3, 1, 4, 2]",10,"[2, 1, 4, 2, 3, 1, 4, 3]","B",480,479,367,367,203,384,383,0,368,367,36,"reward",36
"106",0,3,369,368,336,335,384,384,"rew",2956,2785,456,456,"[4, 3, 1, 4, 2, 3, 1, 2]",30,"[4, 3, 1, 4, 2, 3, 1, 2]","C",336,336,320,319,203,512,511,1,528,527,35,"reward",35
"107",0,3,NA,NA,369,368,304,303,"rew",2956,1903,429,429,"[1, 4, 2, 3, 1, 4]",5,"[1, 4, 2, 3, 1, 3, 4, 2]","A",NA,NA,NA,319,203,576,576,0,335,335,36,"reward",36
"108",0,3,NA,NA,NA,NA,NA,NA,"rew",2956,320,421,421,"[4, 1]",30,"[4, 3, 1, 4, 2, 3, 1, 2]","C",NA,NA,NA,NA,203,NA,NA,0,NA,319,36,"reward",36
"109",1,4,321,321,305,304,368,367,"rew",2956,2401,464,464,"[4, 3, 1, 4, 2, 3, 1, 2]",30,"[4, 3, 1, 4, 2, 3, 1, 2]","C",303,303,336,336,203,416,416,0,352,351,37,"reward",37
"110",1,4,320,319,336,335,336,335,"rew",2954,2415,428,428,"[2, 1, 4, 2, 3, 1, 4, 3]",10,"[2, 1, 4, 2, 3, 1, 4, 3]","B",400,399,336,335,203,368,368,0,319,319,37,"reward",37
"111",1,4,192,191,368,367,336,335,"rew",2938,2431,431,431,"[1, 4, 2, 3, 1, 3, 4, 2]",5,"[1, 4, 2, 3, 1, 3, 4, 2]","A",352,351,512,512,203,336,335,0,335,335,37,"reward",37
"112",0,4,NA,NA,369,368,351,351,"rew",2938,1696,451,451,"[1, 4, 2, 3, 1, 4]",5,"[1, 4, 2, 3, 1, 3, 4, 2]","A",NA,NA,NA,319,203,305,304,0,352,351,38,"reward",38
"113",1,4,305,303,367,367,337,337,"rew",2938,2480,392,392,"[1, 4, 2, 3, 1, 3, 4, 2]",5,"[1, 4, 2, 3, 1, 3, 4, 2]","A",319,319,449,448,203,368,367,0,336,335,39,"reward",39
"114",0,4,272,271,368,367,368,367,"rew",2911,2527,408,408,"[1, 4, 2, 3, 1, 3, 4, 2]",5,"[1, 4, 2, 3, 1, 3, 4, 2]","A",368,367,464,464,203,352,351,1,335,335,40,"reward",40
"115",0,4,NA,NA,353,352,352,352,"rew",2911,1712,361,361,"[1, 4, 2, 3, 1, 4]",5,"[1, 4, 2, 3, 1, 3, 4, 2]","A",NA,NA,NA,319,203,368,368,0,320,319,41,"reward",41
"116",0,4,NA,NA,NA,NA,NA,303,"rew",2911,1024,472,472,"[4, 3, 1, 3]",30,"[4, 3, 1, 4, 2, 3, 1, 2]","C",NA,NA,NA,NA,203,352,352,0,368,367,38,"reward",38
"117",0,4,304,303,304,304,351,351,"rew",2911,2447,487,487,"[2, 1, 4, 2, 3, 1, 4, 3]",10,"[2, 1, 4, 2, 3, 1, 4, 3]","B",384,383,352,351,203,304,304,1,448,448,38,"reward",38
"118",1,4,303,303,304,304,336,335,"rew",2911,2304,443,443,"[2, 1, 4, 2, 3, 1, 4, 3]",10,"[2, 1, 4, 2, 3, 1, 4, 3]","B",368,368,337,336,203,320,319,0,336,335,39,"reward",39
"119",0,4,NA,NA,NA,NA,NA,NA,"rew",2910,480,373,373,"[4, 4]",30,"[4, 3, 1, 4, 2, 3, 1, 2]","C",NA,NA,NA,NA,203,NA,NA,0,NA,479,39,"reward",39
"120",0,4,NA,NA,NA,NA,NA,255,"rew",2910,1104,421,421,"[4, 3, 1, 3]",30,"[4, 3, 1, 4, 2, 3, 1, 2]","C",NA,NA,NA,NA,203,464,463,0,384,384,40,"reward",40
"121",1,4,304,304,304,303,384,383,"rew",2910,2272,392,392,"[2, 1, 4, 2, 3, 1, 4, 3]",10,"[2, 1, 4, 2, 3, 1, 4, 3]","B",320,320,320,319,203,368,367,0,272,271,40,"reward",40
"122",1,4,416,415,367,367,352,352,"rew",2894,2416,405,405,"[4, 3, 1, 4, 2, 3, 1, 2]",30,"[4, 3, 1, 4, 2, 3, 1, 2]","C",336,335,304,304,203,321,321,0,320,319,41,"reward",41
"123",1,4,416,415,351,351,384,384,"rew",2861,2416,404,404,"[4, 3, 1, 4, 2, 3, 1, 2]",30,"[4, 3, 1, 4, 2, 3, 1, 2]","C",304,303,320,319,203,321,320,0,320,320,42,"reward",42
"124",0,4,NA,NA,368,367,320,319,"rew",2859,1841,422,422,"[1, 4, 2, 3, 1, 4]",5,"[1, 4, 2, 3, 1, 3, 4, 2]","A",NA,NA,NA,433,203,336,336,0,384,383,42,"reward",42
"125",0,4,NA,207,544,543,367,367,"rew",2859,2688,344,344,"[2, 1, 4, 2, 3, 1, 4, 2]",10,"[2, 1, 4, 2, 3, 1, 4, 3]","B",512,512,304,303,203,353,352,0,400,399,41,"reward",41
"126",1,4,240,239,384,383,335,335,"rew",2859,2415,414,414,"[2, 1, 4, 2, 3, 1, 4, 3]",10,"[2, 1, 4, 2, 3, 1, 4, 3]","B",367,367,385,384,203,336,336,0,368,368,42,"reward",42
"127",1,4,272,272,352,351,367,367,"rew",2842,2240,277,277,"[2, 1, 4, 2, 3, 1, 4, 3]",10,"[2, 1, 4, 2, 3, 1, 4, 3]","B",320,319,304,303,203,273,272,0,352,351,43,"reward",43
"128",0,4,NA,320,432,431,351,351,"rew",2833,2496,355,355,"[4, 3, 1, 4, 2, 3, 1, 4]",30,"[4, 3, 1, 4, 2, 3, 1, 2]","C",384,384,353,353,203,385,384,0,271,271,43,"reward",43
"129",0,4,320,319,351,351,289,288,"rew",2833,2399,552,552,"[1, 4, 2, 3, 1, 3, 4, 2]",5,"[1, 4, 2, 3, 1, 3, 4, 2]","A",304,303,448,447,203,368,367,1,319,319,43,"reward",43
"130",1,4,321,321,271,271,561,560,"rew",2833,2400,295,295,"[2, 1, 4, 2, 3, 1, 4, 3]",10,"[2, 1, 4, 2, 3, 1, 4, 3]","B",320,319,304,304,203,336,336,0,287,287,44,"reward",44
"131",0,4,NA,383,353,352,399,399,"rew",2830,2384,417,417,"[4, 3, 1, 4, 2, 3, 1, 3]",30,"[4, 3, 1, 4, 2, 3, 1, 2]","C",336,335,287,287,203,321,320,0,304,303,44,"reward",44
"132",1,4,272,271,352,351,400,399,"rew",2830,2336,316,316,"[4, 3, 1, 4, 2, 3, 1, 2]",30,"[4, 3, 1, 4, 2, 3, 1, 2]","C",336,335,352,351,203,336,335,0,288,287,45,"reward",45
"133",1,4,368,367,272,271,416,416,"rew",2830,2512,294,294,"[2, 1, 4, 2, 3, 1, 4, 3]",10,"[2, 1, 4, 2, 3, 1, 4, 3]","B",288,287,256,255,203,640,640,0,272,271,45,"reward",45
"134",1,4,207,207,287,287,321,320,"rew",2827,2368,408,408,"[1, 4, 2, 3, 1, 3, 4, 2]",5,"[1, 4, 2, 3, 1, 3, 4, 2]","A",401,400,448,448,203,288,287,0,416,415,44,"reward",44
"135",1,4,288,287,288,287,304,303,"rew",2823,2112,370,370,"[2, 1, 4, 2, 3, 1, 4, 3]",10,"[2, 1, 4, 2, 3, 1, 4, 3]","B",400,399,240,239,203,288,287,0,304,303,46,"reward",46
"136",1,4,224,224,304,304,304,303,"rew",2820,1953,246,246,"[2, 1, 4, 2, 3, 1, 4, 3]",10,"[2, 1, 4, 2, 3, 1, 4, 3]","B",289,288,288,287,203,256,255,0,288,287,47,"reward",47
"137",0,4,NA,NA,353,353,271,271,"rew",2805,1585,482,482,"[1, 4, 2, 3, 1, 4]",5,"[1, 4, 2, 3, 1, 3, 4, 2]","A",NA,NA,NA,368,203,321,320,0,272,271,45,"reward",45
"138",1,4,368,368,336,335,336,335,"rew",2805,2256,230,230,"[4, 3, 1, 4, 2, 3, 1, 2]",30,"[4, 3, 1, 4, 2, 3, 1, 2]","C",304,303,288,287,203,368,367,0,256,255,46,"reward",46
"139",0,4,NA,NA,NA,NA,NA,NA,"rew",2804,0,NA,250,"[2]",5,"[1, 4, 2, 3, 1, 3, 4, 2]","A",NA,NA,NA,NA,203,NA,NA,0,NA,NA,46,"reward",46
"140",0,4,640,639,336,336,336,335,"rew",2804,2591,297,297,"[4, 3, 1, 4, 2, 3, 1, 2]",30,"[4, 3, 1, 4, 2, 3, 1, 2]","C",303,303,353,352,203,352,351,1,271,271,47,"reward",47
"141",0,4,NA,NA,336,336,336,335,"rew",2804,1888,344,344,"[1, 4, 2, 3, 1, 2]",5,"[1, 4, 2, 3, 1, 3, 4, 2]","A",NA,NA,NA,480,203,272,271,0,464,463,47,"reward",47
"142",1,4,240,239,319,319,417,416,"rew",2804,2320,247,247,"[2, 1, 4, 2, 3, 1, 4, 3]",10,"[2, 1, 4, 2, 3, 1, 4, 3]","B",368,367,320,319,203,368,367,0,288,287,48,"reward",48
"143",1,4,208,207,304,303,384,383,"rew",2760,2240,330,330,"[4, 3, 1, 4, 2, 3, 1, 2]",30,"[4, 3, 1, 4, 2, 3, 1, 2]","C",351,351,337,337,203,384,383,0,272,271,48,"reward",48
"144",0,4,NA,NA,336,335,256,255,"rew",2760,2032,261,261,"[1, 4, 2, 3, 1, 3, 2]",5,"[1, 4, 2, 3, 1, 3, 4, 2]","A",NA,255,560,559,203,320,320,0,304,303,48,"reward",48
"145",1,5,160,159,320,320,288,287,"rew",2760,2240,463,463,"[1, 4, 2, 3, 1, 3, 4, 2]",5,"[1, 4, 2, 3, 1, 3, 4, 2]","A",368,367,480,479,203,304,303,0,320,319,49,"reward",49
"146",1,5,176,175,303,303,289,288,"rew",2728,2015,342,342,"[2, 1, 4, 2, 3, 1, 4, 3]",10,"[2, 1, 4, 2, 3, 1, 4, 3]","B",304,304,336,335,203,303,303,0,304,303,49,"reward",49
"147",1,5,145,144,256,255,288,287,"rew",2690,1713,305,305,"[2, 1, 4, 2, 3, 1, 4, 3]",10,"[2, 1, 4, 2, 3, 1, 4, 3]","B",256,255,288,287,203,288,288,0,192,191,50,"reward",50
"148",0,5,272,272,353,352,320,319,"rew",2646,2432,378,378,"[1, 4, 2, 3, 1, 3, 4, 2]",5,"[1, 4, 2, 3, 1, 3, 4, 2]","A",208,207,607,607,203,272,272,1,400,399,50,"reward",50
"149",1,5,176,176,287,287,305,304,"rew",2646,2048,363,363,"[1, 4, 2, 3, 1, 3, 4, 2]",5,"[1, 4, 2, 3, 1, 3, 4, 2]","A",160,159,560,559,203,272,272,0,288,287,51,"reward",51
"150",0,5,NA,287,320,319,304,303,"rew",2614,2016,280,280,"[4, 3, 1, 4, 2, 3, 1, 4]",30,"[4, 3, 1, 4, 2, 3, 1, 2]","C",287,287,305,304,203,288,287,0,224,223,49,"reward",49
"151",0,5,NA,304,304,303,256,256,"rew",2614,2032,296,296,"[2, 1, 4, 2, 3, 1, 4, 2]",10,"[2, 1, 4, 2, 3, 1, 4, 3]","B",336,336,256,255,203,320,320,0,256,255,51,"reward",51
"152",0,5,112,111,352,352,320,319,"rew",2614,2336,293,293,"[1, 4, 2, 3, 1, 3, 4, 2]",5,"[1, 4, 2, 3, 1, 3, 4, 2]","A",432,431,512,512,203,320,319,1,288,287,52,"reward",52
"153",1,5,287,287,320,319,272,272,"rew",2614,2064,262,262,"[2, 1, 4, 2, 3, 1, 4, 3]",10,"[2, 1, 4, 2, 3, 1, 4, 3]","B",353,353,272,271,203,304,304,0,256,255,52,"reward",52
"154",0,5,NA,NA,273,272,208,207,"rew",2586,1696,296,296,"[1, 4, 2, 3, 1, 4]",5,"[1, 4, 2, 3, 1, 3, 4, 2]","A",NA,NA,NA,287,203,672,672,0,256,255,53,"reward",53
"155",0,5,NA,256,353,352,352,351,"rew",2586,2160,248,248,"[4, 3, 1, 4, 2, 3, 1, 4]",30,"[4, 3, 1, 4, 2, 3, 1, 2]","C",367,367,304,304,203,272,271,0,256,255,50,"reward",50
"156",1,5,127,127,512,511,352,352,"rew",2586,2032,267,267,"[4, 3, 1, 4, 2, 3, 1, 2]",30,"[4, 3, 1, 4, 2, 3, 1, 2]","C",225,224,256,255,203,288,287,0,272,271,51,"reward",51
"157",1,5,144,143,288,287,336,335,"rew",2556,2112,52,52,"[1, 4, 2, 3, 1, 3, 4, 2]",5,"[1, 4, 2, 3, 1, 3, 4, 2]","A",304,303,496,496,203,319,319,0,225,224,54,"reward",54
"158",1,5,304,303,304,303,320,319,"rew",2545,2096,378,378,"[2, 1, 4, 2, 3, 1, 4, 3]",10,"[2, 1, 4, 2, 3, 1, 4, 3]","B",320,319,288,287,203,320,320,0,240,240,53,"reward",53
"159",1,5,209,208,319,319,369,368,"rew",2545,2081,131,131,"[4, 3, 1, 4, 2, 3, 1, 2]",30,"[4, 3, 1, 4, 2, 3, 1, 2]","C",239,239,337,336,203,304,304,0,304,303,52,"reward",52
"160",1,5,159,159,352,351,320,320,"rew",2407,1920,245,245,"[4, 3, 1, 4, 2, 3, 1, 2]",30,"[4, 3, 1, 4, 2, 3, 1, 2]","C",241,240,288,287,203,287,287,0,273,272,53,"reward",53
"161",1,5,176,176,577,577,288,288,"rew",2406,2096,277,277,"[4, 3, 1, 4, 2, 3, 1, 2]",30,"[4, 3, 1, 4, 2, 3, 1, 2]","C",240,239,271,271,203,256,255,0,288,287,54,"reward",54
"162",0,5,NA,NA,256,255,303,303,"rew",2390,1456,277,277,"[1, 4, 2, 3, 1, 4]",5,"[1, 4, 2, 3, 1, 3, 4, 2]","A",NA,NA,NA,336,203,321,321,0,240,239,55,"reward",55
"163",0,5,NA,NA,NA,NA,NA,NA,"rew",2390,640,219,219,"[1, 4, 1]",5,"[1, 4, 2, 3, 1, 3, 4, 2]","A",NA,NA,NA,NA,203,NA,304,0,335,335,56,"reward",56
"164",1,5,145,145,256,256,303,303,"rew",2390,1985,229,229,"[1, 4, 2, 3, 1, 3, 4, 2]",5,"[1, 4, 2, 3, 1, 3, 4, 2]","A",304,304,480,480,203,273,272,0,224,223,57,"reward",57
"165",1,5,240,239,336,336,288,287,"rew",2373,2032,303,303,"[2, 1, 4, 2, 3, 1, 4, 3]",10,"[2, 1, 4, 2, 3, 1, 4, 3]","B",304,303,272,271,203,320,320,0,272,271,54,"reward",54
"166",1,5,192,192,321,319,256,255,"rew",2358,1888,262,262,"[2, 1, 4, 2, 3, 1, 4, 3]",10,"[2, 1, 4, 2, 3, 1, 4, 3]","B",352,352,255,255,203,256,255,0,256,255,55,"reward",55
"167",1,5,240,239,320,320,272,271,"rew",2331,1871,323,323,"[4, 3, 1, 4, 2, 3, 1, 2]",30,"[4, 3, 1, 4, 2, 3, 1, 2]","C",272,271,288,287,203,240,240,0,239,239,55,"reward",55
"168",0,5,192,191,271,271,304,304,"rew",2315,2016,300,300,"[1, 4, 2, 3, 1, 3, 4, 2]",5,"[1, 4, 2, 3, 1, 3, 4, 2]","A",240,240,528,528,203,273,272,1,208,208,58,"reward",58
"169",1,5,192,191,272,272,256,255,"rew",2315,1759,40,40,"[2, 1, 4, 2, 3, 1, 4, 3]",10,"[2, 1, 4, 2, 3, 1, 4, 3]","B",352,352,224,224,203,271,271,0,192,191,56,"reward",56
"170",1,5,128,127,304,304,256,256,"rew",2294,1855,83,83,"[2, 1, 4, 2, 3, 1, 4, 3]",10,"[2, 1, 4, 2, 3, 1, 4, 3]","B",480,479,240,240,203,272,272,0,175,175,57,"reward",57
"171",0,5,NA,NA,513,512,287,287,"rew",2294,1567,181,181,"[1, 4, 2, 3, 1, 4]",5,"[1, 4, 2, 3, 1, 3, 4, 2]","A",NA,NA,NA,239,203,289,288,0,239,239,59,"reward",59
"172",1,5,176,175,320,320,304,303,"rew",2294,1968,250,250,"[4, 3, 1, 4, 2, 3, 1, 2]",30,"[4, 3, 1, 4, 2, 3, 1, 2]","C",256,256,320,320,203,288,287,0,304,303,56,"reward",56
"173",0,5,NA,NA,NA,NA,NA,NA,"rew",2294,0,NA,330,"[1]",10,"[2, 1, 4, 2, 3, 1, 4, 3]","B",NA,NA,NA,NA,203,NA,NA,0,NA,NA,58,"reward",58
"174",0,5,384,383,271,271,465,464,"rew",2294,2240,259,259,"[2, 1, 4, 2, 3, 1, 4, 3]",10,"[2, 1, 4, 2, 3, 1, 4, 3]","B",288,287,240,239,203,304,303,1,288,287,59,"reward",59
"175",1,5,128,128,320,319,288,287,"rew",2294,2031,42,42,"[2, 1, 4, 2, 3, 1, 4, 3]",10,"[2, 1, 4, 2, 3, 1, 4, 3]","B",320,320,352,352,203,304,303,0,319,317,60,"reward",60
"176",1,5,177,176,337,337,272,271,"rew",2293,1873,338,338,"[4, 3, 1, 4, 2, 3, 1, 2]",30,"[4, 3, 1, 4, 2, 3, 1, 2]","C",239,239,288,288,203,288,287,0,272,271,57,"reward",57
"177",1,5,160,159,288,287,272,271,"rew",2277,1696,261,261,"[4, 3, 1, 4, 2, 3, 1, 2]",30,"[4, 3, 1, 4, 2, 3, 1, 2]","C",224,223,256,255,203,240,239,0,256,255,58,"reward",58
"178",1,5,144,144,241,240,320,320,"rew",2247,1712,33,33,"[4, 3, 1, 4, 2, 3, 1, 2]",30,"[4, 3, 1, 4, 2, 3, 1, 2]","C",224,223,271,271,203,272,272,0,240,239,59,"reward",59
"179",1,5,176,176,272,271,288,287,"rew",2229,1968,234,234,"[1, 4, 2, 3, 1, 3, 4, 2]",5,"[1, 4, 2, 3, 1, 3, 4, 2]","A",224,223,432,432,203,352,351,0,224,223,60,"reward",60
"180",1,5,160,159,271,271,241,240,"rew",2218,1648,173,173,"[4, 3, 1, 4, 2, 3, 1, 2]",30,"[4, 3, 1, 4, 2, 3, 1, 2]","C",240,240,256,256,203,255,255,0,225,224,60,"reward",60
"181",1,6,160,160,239,239,241,240,"rew",2213,1664,401,401,"[4, 3, 1, 4, 2, 3, 1, 2]",30,"[4, 3, 1, 4, 2, 3, 1, 2]","C",256,255,240,240,203,256,255,0,272,271,61,"reward",61
"182",0,6,NA,NA,320,319,240,239,"rew",2165,1568,293,293,"[2, 1, 4, 2, 3, 1, 2]",10,"[2, 1, 4, 2, 3, 1, 4, 3]","B",NA,255,240,240,203,271,271,0,241,240,61,"reward",61
"183",1,6,224,224,239,239,273,273,"rew",2165,1856,265,265,"[1, 4, 2, 3, 1, 3, 4, 2]",5,"[1, 4, 2, 3, 1, 3, 4, 2]","A",256,256,336,336,203,288,287,0,240,239,61,"reward",61
"184",0,6,NA,NA,352,351,304,303,"rew",2133,1840,48,48,"[2, 1, 4, 2, 3, 1, 2]",10,"[2, 1, 4, 2, 3, 1, 4, 3]","B",NA,256,288,288,203,368,367,0,272,271,62,"reward",62
"185",1,6,160,160,320,319,224,223,"rew",2133,1712,282,282,"[2, 1, 4, 2, 3, 1, 4, 3]",10,"[2, 1, 4, 2, 3, 1, 4, 3]","B",273,273,208,208,203,288,288,0,239,239,63,"reward",63
"186",0,6,176,175,273,272,256,255,"rew",2123,1952,440,440,"[1, 4, 2, 3, 1, 3, 4, 2]",5,"[1, 4, 2, 3, 1, 3, 4, 2]","A",240,239,479,479,203,287,287,1,241,240,62,"reward",62
"187",0,6,NA,NA,NA,304,272,271,"rew",2123,1071,220,220,"[1, 4, 2, 3, 4]",5,"[1, 4, 2, 3, 1, 3, 4, 2]","A",NA,NA,NA,NA,203,256,255,0,239,239,63,"reward",63
"188",0,6,128,127,257,256,240,239,"rew",2123,1952,259,259,"[4, 3, 1, 4, 2, 3, 1, 2]",30,"[4, 3, 1, 4, 2, 3, 1, 2]","C",559,559,256,256,203,288,287,1,224,223,62,"reward",62
"189",0,6,NA,NA,416,415,288,287,"rew",2123,1456,259,259,"[1, 4, 2, 3, 1, 4]",5,"[1, 4, 2, 3, 1, 3, 4, 2]","A",NA,NA,NA,255,203,256,255,0,240,239,64,"reward",64
"190",0,6,NA,207,288,287,224,223,"rew",2123,1968,137,137,"[2, 1, 4, 2, 3, 1, 4, 2]",10,"[2, 1, 4, 2, 3, 1, 4, 3]","B",287,287,433,432,203,304,303,0,224,223,64,"reward",64
"191",0,6,208,207,287,287,225,225,"rew",2123,1887,276,276,"[2, 1, 4, 2, 3, 1, 4, 3]",10,"[2, 1, 4, 2, 3, 1, 4, 3]","B",224,223,432,432,203,224,223,1,287,286,65,"reward",65
"192",1,6,208,208,256,255,240,240,"rew",2123,1743,105,105,"[2, 1, 4, 2, 3, 1, 4, 3]",10,"[2, 1, 4, 2, 3, 1, 4, 3]","B",288,288,240,239,203,272,271,0,239,239,66,"reward",66
"193",1,6,127,127,288,287,208,207,"rew",2116,1888,213,213,"[2, 1, 4, 2, 3, 1, 4, 3]",10,"[2, 1, 4, 2, 3, 1, 4, 3]","B",224,223,241,240,203,560,559,0,240,239,67,"reward",67
"194",0,6,176,175,320,319,256,255,"rew",2116,1792,377,377,"[1, 4, 2, 3, 1, 3, 4, 2]",5,"[1, 4, 2, 3, 1, 3, 4, 2]","A",256,256,288,287,203,272,272,1,224,223,65,"reward",65
"195",0,6,NA,NA,272,271,288,288,"rew",2116,1344,258,258,"[1, 4, 2, 3, 1, 4]",5,"[1, 4, 2, 3, 1, 3, 4, 2]","A",NA,NA,NA,288,203,272,271,0,224,223,66,"reward",66
"196",0,6,NA,271,401,400,336,335,"rew",2116,2032,339,339,"[4, 3, 1, 4, 2, 3, 1, 4]",30,"[4, 3, 1, 4, 2, 3, 1, 2]","C",224,223,255,255,203,256,255,0,288,287,63,"reward",63
"197",0,6,NA,NA,NA,NA,NA,NA,"rew",2116,448,359,359,"[1, 4, 1]",5,"[1, 4, 2, 3, 1, 3, 4, 2]","A",NA,NA,NA,NA,203,NA,223,0,225,224,67,"reward",67
"198",0,6,NA,NA,NA,NA,NA,255,"rew",2116,719,252,252,"[4, 3, 1, 3]",30,"[4, 3, 1, 4, 2, 3, 1, 2]","C",NA,NA,NA,NA,203,225,224,0,239,239,64,"reward",64
"199",1,6,160,159,336,336,240,239,"rew",2116,1792,71,71,"[4, 3, 1, 4, 2, 3, 1, 2]",30,"[4, 3, 1, 4, 2, 3, 1, 2]","C",288,288,256,256,203,256,255,0,256,255,65,"reward",65
"200",0,6,NA,NA,NA,335,208,207,"rew",2090,1008,369,369,"[4, 3, 1, 4, 1]",30,"[4, 3, 1, 4, 2, 3, 1, 2]","C",NA,NA,NA,NA,203,223,223,0,241,240,66,"reward",66
"201",1,6,128,127,320,319,240,240,"rew",2090,1727,120,120,"[2, 1, 4, 2, 3, 1, 4, 3]",10,"[2, 1, 4, 2, 3, 1, 4, 3]","B",336,335,224,224,203,256,255,0,223,223,68,"reward",68
"202",1,6,176,175,288,287,256,256,"rew",2084,1760,102,102,"[4, 3, 1, 4, 2, 3, 1, 2]",30,"[4, 3, 1, 4, 2, 3, 1, 2]","C",272,272,256,256,203,239,239,0,273,272,67,"reward",67
"203",0,6,192,191,305,304,256,255,"rew",2005,1696,358,358,"[2, 1, 4, 2, 3, 1, 4, 3]",10,"[2, 1, 4, 2, 3, 1, 4, 3]","B",272,271,207,207,203,304,304,1,160,159,69,"reward",69
"204",1,6,160,159,272,271,192,191,"rew",2005,1744,228,228,"[2, 1, 4, 2, 3, 1, 4, 3]",10,"[2, 1, 4, 2, 3, 1, 4, 3]","B",288,287,432,431,203,272,271,0,128,127,70,"reward",70
"205",0,6,NA,NA,257,256,240,239,"rew",1973,1264,132,132,"[1, 4, 2, 3, 1, 4]",5,"[1, 4, 2, 3, 1, 3, 4, 2]","A",NA,NA,NA,239,203,303,303,0,225,224,68,"reward",68
"206",0,6,NA,NA,255,254,257,256,"rew",1973,1296,249,249,"[1, 4, 2, 3, 1, 4]",5,"[1, 4, 2, 3, 1, 3, 4, 2]","A",NA,NA,NA,256,203,272,272,0,256,255,69,"reward",69
"207",0,6,NA,NA,NA,NA,NA,NA,"rew",1973,0,NA,119,"[3]",30,"[4, 3, 1, 4, 2, 3, 1, 2]","C",NA,NA,NA,NA,203,NA,NA,0,NA,NA,68,"reward",68
"208",0,6,192,191,272,271,400,399,"rew",1973,1936,249,249,"[2, 1, 4, 2, 3, 1, 4, 3]",10,"[2, 1, 4, 2, 3, 1, 4, 3]","B",272,271,272,271,203,272,272,1,256,255,71,"reward",71
"209",0,6,NA,NA,NA,NA,NA,NA,"rew",1973,593,241,241,"[4, 3, 2]",30,"[4, 3, 1, 4, 2, 3, 1, 2]","C",NA,NA,NA,NA,203,NA,272,0,320,319,69,"reward",69
"210",0,6,NA,NA,256,256,240,240,"rew",1973,1200,275,275,"[1, 4, 2, 3, 1, 4]",5,"[1, 4, 2, 3, 1, 3, 4, 2]","A",NA,NA,NA,239,203,240,239,0,224,223,70,"reward",70
"211",1,6,144,143,303,303,240,240,"rew",1973,1728,144,144,"[4, 3, 1, 4, 2, 3, 1, 2]",30,"[4, 3, 1, 4, 2, 3, 1, 2]","C",304,303,304,303,203,209,208,0,224,223,70,"reward",70
"212",0,6,NA,NA,224,224,240,239,"rew",1932,1296,406,406,"[1, 4, 2, 3, 1, 4]",5,"[1, 4, 2, 3, 1, 3, 4, 2]","A",NA,NA,NA,287,203,288,287,0,256,255,71,"reward",71
"213",1,6,160,159,287,287,257,257,"rew",1932,1712,152,152,"[4, 3, 1, 4, 2, 3, 1, 2]",30,"[4, 3, 1, 4, 2, 3, 1, 2]","C",240,240,256,255,203,256,255,0,256,256,71,"reward",71
"214",0,6,240,239,304,303,288,287,"rew",1896,2127,245,245,"[1, 4, 2, 3, 1, 3, 4, 2]",5,"[1, 4, 2, 3, 1, 3, 4, 2]","A",304,304,400,399,203,303,303,1,288,288,72,"reward",72
"215",0,6,NA,NA,NA,NA,NA,NA,"rew",1896,0,NA,329,"[1]",10,"[2, 1, 4, 2, 3, 1, 4, 3]","B",NA,NA,NA,NA,203,NA,NA,0,NA,NA,72,"reward",72
"216",0,6,176,175,303,303,289,288,"rew",1896,1823,244,244,"[4, 3, 1, 4, 2, 3, 1, 2]",30,"[4, 3, 1, 4, 2, 3, 1, 2]","C",240,240,272,271,203,288,288,1,255,255,72,"reward",72
"217",1,7,128,127,272,271,192,192,"rew",1896,1535,242,242,"[2, 1, 4, 2, 3, 1, 4, 3]",10,"[2, 1, 4, 2, 3, 1, 4, 3]","B",272,272,176,175,203,256,255,0,239,239,73,"reward",73
"218",0,7,NA,NA,NA,NA,NA,NA,"rew",1916,465,260,260,"[1, 4, 1]",5,"[1, 4, 2, 3, 1, 3, 4, 2]","A",NA,NA,NA,NA,203,NA,240,0,224,223,73,"reward",73
"219",0,7,NA,NA,272,271,240,239,"rew",1916,1920,86,86,"[1, 4, 2, 3, 1, 3, 2]",5,"[1, 4, 2, 3, 1, 3, 4, 2]","A",NA,399,433,433,203,336,335,0,240,240,74,"reward",74
"220",1,7,192,191,271,271,257,257,"rew",1916,1695,221,221,"[4, 3, 1, 4, 2, 3, 1, 2]",30,"[4, 3, 1, 4, 2, 3, 1, 2]","C",272,271,224,223,203,224,224,0,255,255,73,"reward",73
"221",0,7,193,192,272,271,224,223,"rew",1941,1745,257,257,"[1, 4, 2, 3, 1, 3, 4, 2]",5,"[1, 4, 2, 3, 1, 3, 4, 2]","A",272,271,304,303,203,288,288,1,192,191,75,"reward",75
"222",0,7,208,207,208,207,240,240,"rew",1941,1520,467,467,"[4, 3, 1, 4, 2, 3, 1, 2]",30,"[4, 3, 1, 4, 2, 3, 1, 2]","C",208,207,224,224,203,223,223,1,209,208,74,"reward",74
"223",0,7,NA,NA,NA,NA,NA,223,"rew",1941,656,74,74,"[4, 3, 1, 3]",30,"[4, 3, 1, 4, 2, 3, 1, 2]","C",NA,NA,NA,NA,203,208,207,0,224,223,75,"reward",75
"224",0,7,NA,NA,NA,NA,NA,NA,"rew",1941,0,NA,278,"[3]",30,"[4, 3, 1, 4, 2, 3, 1, 2]","C",NA,NA,NA,NA,203,NA,NA,0,NA,NA,76,"reward",76
"225",1,7,223,223,223,223,209,208,"rew",1941,1520,241,241,"[2, 1, 4, 2, 3, 1, 4, 3]",10,"[2, 1, 4, 2, 3, 1, 4, 3]","B",225,224,208,207,203,224,224,0,208,207,74,"reward",74
"226",1,7,176,176,225,224,176,175,"rew",1940,1440,279,279,"[4, 3, 1, 4, 2, 3, 1, 2]",30,"[4, 3, 1, 4, 2, 3, 1, 2]","C",240,239,191,191,203,207,207,0,225,224,77,"reward",77
"227",0,7,NA,NA,223,222,177,177,"rew",1933,1249,423,423,"[2, 1, 4, 2, 3, 1, 2]",10,"[2, 1, 4, 2, 3, 1, 4, 3]","B",NA,240,208,207,203,240,239,0,160,159,75,"reward",75
"228",0,7,NA,224,209,209,160,159,"rew",1933,1392,254,254,"[4, 3, 1, 4, 2, 3, 1, 4]",30,"[4, 3, 1, 4, 2, 3, 1, 2]","C",224,224,175,175,203,192,191,0,208,207,78,"reward",78
"229",1,7,192,191,224,224,240,239,"rew",1933,1472,55,55,"[4, 3, 1, 4, 2, 3, 1, 2]",30,"[4, 3, 1, 4, 2, 3, 1, 2]","C",240,239,208,208,203,240,239,0,128,127,79,"reward",79
"230",1,7,144,143,304,303,207,207,"rew",1925,1583,281,281,"[2, 1, 4, 2, 3, 1, 4, 3]",10,"[2, 1, 4, 2, 3, 1, 4, 3]","B",272,271,240,239,203,209,209,0,207,207,76,"reward",76
"231",0,7,NA,NA,NA,NA,NA,NA,"rew",1925,0,NA,166,"[1]",10,"[2, 1, 4, 2, 3, 1, 4, 3]","B",NA,NA,NA,NA,203,NA,NA,0,NA,NA,77,"reward",77
"232",1,7,143,143,224,223,224,224,"rew",1925,1552,245,245,"[2, 1, 4, 2, 3, 1, 4, 3]",10,"[2, 1, 4, 2, 3, 1, 4, 3]","B",193,193,256,256,203,256,255,0,256,255,78,"reward",78
"233",1,7,128,127,240,239,176,176,"rew",1933,1472,256,256,"[4, 3, 1, 4, 2, 3, 1, 2]",30,"[4, 3, 1, 4, 2, 3, 1, 2]","C",271,271,193,193,203,207,207,0,257,256,80,"reward",80
"234",1,7,159,159,223,223,209,208,"rew",1916,1472,247,247,"[2, 1, 4, 2, 3, 1, 4, 3]",10,"[2, 1, 4, 2, 3, 1, 4, 3]","B",209,209,208,207,203,224,223,0,240,239,79,"reward",79
"235",0,7,NA,NA,257,256,224,223,"rew",1923,1199,198,198,"[1, 4, 2, 3, 1, 4]",5,"[1, 4, 2, 3, 1, 3, 4, 2]","A",NA,NA,NA,207,203,304,303,0,207,207,76,"reward",76
"236",1,7,161,160,223,223,225,224,"rew",1923,1584,37,37,"[2, 1, 4, 2, 3, 1, 4, 3]",10,"[2, 1, 4, 2, 3, 1, 4, 3]","B",208,207,240,239,203,256,255,0,271,269,80,"reward",80
"237",0,7,NA,NA,NA,NA,NA,NA,"rew",1916,495,255,255,"[1, 4, 1]",5,"[1, 4, 2, 3, 1, 3, 4, 2]","A",NA,NA,NA,NA,203,NA,272,0,223,223,77,"reward",77
"238",0,7,128,127,241,240,208,208,"rew",1916,1824,280,280,"[4, 3, 1, 4, 2, 3, 1, 2]",30,"[4, 3, 1, 4, 2, 3, 1, 2]","C",512,512,223,223,203,256,255,1,256,255,81,"reward",81
"239",0,7,208,208,304,304,288,287,"rew",1916,1888,227,227,"[1, 4, 2, 3, 1, 3, 4, 2]",5,"[1, 4, 2, 3, 1, 3, 4, 2]","A",240,239,336,335,203,255,255,1,257,256,78,"reward",78
"240",0,7,NA,NA,NA,NA,NA,207,"rew",1916,688,252,252,"[4, 3, 1, 3]",30,"[4, 3, 1, 4, 2, 3, 1, 2]","C",NA,NA,NA,NA,203,241,240,0,240,240,82,"reward",82
"241",0,7,NA,NA,NA,NA,NA,NA,"rew",1916,0,NA,281,"[1]",10,"[2, 1, 4, 2, 3, 1, 4, 3]","B",NA,NA,NA,NA,203,NA,NA,0,NA,NA,81,"reward",81
"242",1,7,144,144,240,240,224,224,"rew",1916,1536,245,245,"[4, 3, 1, 4, 2, 3, 1, 2]",30,"[4, 3, 1, 4, 2, 3, 1, 2]","C",240,239,224,224,203,240,240,0,224,223,83,"reward",83
"243",0,7,176,176,192,191,288,288,"rew",1805,1519,861,861,"[4, 3, 1, 4, 2, 3, 1, 2]",30,"[4, 3, 1, 4, 2, 3, 1, 2]","C",191,190,225,224,203,240,239,1,207,207,84,"reward",84
"244",0,7,NA,NA,NA,256,288,287,"rew",1805,1008,228,228,"[1, 4, 2, 3, 4]",5,"[1, 4, 2, 3, 1, 3, 4, 2]","A",NA,NA,NA,NA,203,240,239,0,224,223,79,"reward",79
"245",0,7,NA,NA,224,224,240,239,"rew",1805,1104,254,254,"[1, 4, 2, 3, 1, 2]",5,"[1, 4, 2, 3, 1, 3, 4, 2]","A",NA,NA,NA,208,203,223,223,0,209,208,80,"reward",80
"246",0,7,NA,NA,NA,NA,NA,NA,"rew",1805,0,NA,297,"[1]",10,"[2, 1, 4, 2, 3, 1, 4, 3]","B",NA,NA,NA,NA,203,NA,NA,0,NA,NA,82,"reward",82
"247",0,7,176,175,401,400,287,287,"rew",1805,2000,255,255,"[1, 4, 2, 3, 1, 3, 4, 2]",5,"[1, 4, 2, 3, 1, 3, 4, 2]","A",272,271,367,367,203,272,272,1,225,224,81,"reward",81
"248",0,7,NA,NA,240,239,256,255,"rew",1805,1376,438,438,"[1, 4, 2, 3, 1, 4]",5,"[1, 4, 2, 3, 1, 3, 4, 2]","A",NA,NA,NA,272,203,224,224,0,384,383,82,"reward",82
"249",1,7,128,127,223,223,192,192,"rew",1805,1488,247,247,"[2, 1, 4, 2, 3, 1, 4, 3]",10,"[2, 1, 4, 2, 3, 1, 4, 3]","B",240,239,240,239,203,208,208,0,257,256,83,"reward",83
"250",0,7,160,159,336,336,256,256,"rew",1804,1808,256,256,"[1, 4, 2, 3, 1, 3, 4, 2]",5,"[1, 4, 2, 3, 1, 3, 4, 2]","A",336,336,240,240,203,240,239,1,240,239,83,"reward",83
"251",1,7,160,159,240,239,208,207,"rew",1804,1504,260,260,"[2, 1, 4, 2, 3, 1, 4, 3]",10,"[2, 1, 4, 2, 3, 1, 4, 3]","B",175,175,241,240,203,240,240,0,240,239,84,"reward",84
"252",0,7,144,144,208,208,256,256,"rew",1780,1743,243,243,"[1, 4, 2, 3, 1, 3, 4, 2]",5,"[1, 4, 2, 3, 1, 3, 4, 2]","A",383,383,289,289,203,224,223,1,239,238,84,"reward",84
"253",0,8,NA,239,241,240,224,223,"rew",1780,1664,272,272,"[4, 3, 1, 4, 2, 3, 1, 4]",30,"[4, 3, 1, 4, 2, 3, 1, 2]","C",241,240,239,239,203,256,256,0,224,223,85,"reward",85
"254",0,8,144,144,256,255,224,223,"rew",1780,1552,430,430,"[2, 1, 4, 2, 3, 1, 4, 3]",10,"[2, 1, 4, 2, 3, 1, 4, 3]","B",240,240,208,207,203,224,224,1,256,255,85,"reward",85
"255",0,8,95,95,255,255,225,225,"rew",1780,1615,344,344,"[4, 3, 1, 4, 2, 3, 1, 2]",30,"[4, 3, 1, 4, 2, 3, 1, 2]","C",337,336,240,239,203,208,208,1,255,255,86,"reward",86
"256",0,8,NA,NA,208,207,224,223,"rew",1780,1072,284,284,"[1, 4, 2, 3, 1, 2]",5,"[1, 4, 2, 3, 1, 3, 4, 2]","A",NA,NA,NA,207,203,208,208,0,224,223,85,"reward",85
"257",0,8,NA,NA,NA,240,241,241,"rew",1780,945,255,255,"[1, 4, 2, 3, 4]",5,"[1, 4, 2, 3, 1, 3, 4, 2]","A",NA,NA,NA,NA,203,256,255,0,208,207,86,"reward",86
"258",0,8,NA,NA,NA,320,224,223,"rew",1780,1025,263,263,"[2, 1, 4, 2, 1]",10,"[2, 1, 4, 2, 3, 1, 4, 3]","B",NA,NA,NA,NA,203,255,255,0,225,224,86,"reward",86
"259",0,8,NA,NA,NA,271,192,191,"rew",1780,896,446,446,"[1, 4, 2, 3, 4]",5,"[1, 4, 2, 3, 1, 3, 4, 2]","A",NA,NA,NA,NA,203,208,208,0,224,223,87,"reward",87
"260",0,8,256,256,304,303,144,143,"rew",1780,1712,322,322,"[4, 3, 1, 4, 2, 3, 1, 2]",30,"[4, 3, 1, 4, 2, 3, 1, 2]","C",272,271,240,239,203,272,272,1,224,223,87,"reward",87
"261",0,8,NA,NA,NA,271,192,192,"rew",1780,895,230,230,"[4, 3, 1, 4, 1]",30,"[4, 3, 1, 4, 2, 3, 1, 2]","C",NA,NA,NA,NA,203,207,207,0,224,224,88,"reward",88
"262",0,8,NA,NA,464,463,240,240,"rew",1780,1439,647,647,"[1, 4, 2, 3, 1, 4]",5,"[1, 4, 2, 3, 1, 3, 4, 2]","A",NA,NA,NA,240,203,240,240,0,255,255,88,"reward",88
"263",1,8,144,143,240,239,240,239,"rew",1780,1568,174,174,"[1, 4, 2, 3, 1, 3, 4, 2]",5,"[1, 4, 2, 3, 1, 3, 4, 2]","A",240,239,240,239,203,240,239,0,224,223,89,"reward",89
"264",1,8,112,112,240,239,207,207,"rew",1780,1504,272,272,"[4, 3, 1, 4, 2, 3, 1, 2]",30,"[4, 3, 1, 4, 2, 3, 1, 2]","C",272,271,192,191,203,257,257,0,224,223,89,"reward",89
"265",0,8,193,192,257,256,256,255,"rew",1777,1841,291,291,"[4, 3, 1, 4, 2, 3, 1, 2]",30,"[4, 3, 1, 4, 2, 3, 1, 2]","C",352,351,255,254,203,256,255,1,272,271,90,"reward",90
"266",0,8,NA,NA,208,207,256,256,"rew",1777,1631,302,302,"[1, 4, 2, 3, 1, 3, 2]",5,"[1, 4, 2, 3, 1, 3, 4, 2]","A",NA,255,384,383,203,272,272,0,255,255,90,"reward",90
"267",0,8,192,192,224,223,256,256,"rew",1777,1616,271,271,"[1, 4, 2, 3, 1, 3, 4, 2]",5,"[1, 4, 2, 3, 1, 3, 4, 2]","A",192,192,304,303,203,223,223,1,225,224,91,"reward",91
"268",1,8,128,128,240,239,176,175,"rew",1777,1392,276,276,"[4, 3, 1, 4, 2, 3, 1, 2]",30,"[4, 3, 1, 4, 2, 3, 1, 2]","C",192,191,208,208,203,224,223,0,224,223,91,"reward",91
"269",1,8,192,192,240,240,192,191,"rew",1777,1488,283,283,"[2, 1, 4, 2, 3, 1, 4, 3]",10,"[2, 1, 4, 2, 3, 1, 4, 3]","B",240,240,192,191,203,224,223,0,208,207,87,"reward",87
"270",0,8,NA,NA,206,206,210,209,"rew",1765,1008,263,263,"[1, 4, 2, 3, 1, 1]",5,"[1, 4, 2, 3, 1, 3, 4, 2]","A",NA,NA,NA,159,203,207,207,0,225,224,92,"reward",92
"271",0,8,NA,NA,225,223,208,207,"rew",1765,1120,232,232,"[1, 4, 2, 3, 1, 4]",5,"[1, 4, 2, 3, 1, 3, 4, 2]","A",NA,NA,NA,223,203,240,239,0,224,223,93,"reward",93
"272",0,8,NA,NA,NA,NA,NA,240,"rew",1765,688,332,332,"[2, 1, 4, 3]",10,"[2, 1, 4, 2, 3, 1, 4, 3]","B",NA,NA,NA,NA,203,175,174,0,273,272,88,"reward",88
"273",0,8,NA,NA,NA,255,192,191,"rew",1765,864,200,200,"[1, 4, 2, 3, 4]",5,"[1, 4, 2, 3, 1, 3, 4, 2]","A",NA,NA,NA,NA,203,238,238,0,178,177,94,"reward",94
"274",0,8,NA,NA,NA,303,176,176,"rew",1765,928,402,402,"[4, 3, 1, 4, 3]",30,"[4, 3, 1, 4, 2, 3, 1, 2]","C",NA,NA,NA,NA,203,208,207,0,240,239,92,"reward",92
"275",1,8,129,129,208,207,176,175,"rew",1765,1297,272,272,"[4, 3, 1, 4, 2, 3, 1, 2]",30,"[4, 3, 1, 4, 2, 3, 1, 2]","C",208,207,144,143,203,224,223,0,208,207,93,"reward",93
"276",0,8,161,160,304,303,176,175,"rew",1749,1568,291,291,"[2, 1, 4, 2, 3, 1, 4, 3]",10,"[2, 1, 4, 2, 3, 1, 4, 3]","B",288,288,224,224,203,224,223,1,191,191,89,"reward",89
"277",0,8,128,127,257,256,240,240,"rew",1749,1872,133,133,"[2, 1, 4, 2, 3, 1, 4, 3]",10,"[2, 1, 4, 2, 3, 1, 4, 3]","B",624,624,207,207,203,176,175,1,240,239,90,"reward",90
"278",1,8,192,192,240,240,176,176,"rew",1749,1456,269,269,"[2, 1, 4, 2, 3, 1, 4, 3]",10,"[2, 1, 4, 2, 3, 1, 4, 3]","B",239,239,160,160,203,241,241,0,208,207,91,"reward",91
"279",0,8,NA,NA,NA,NA,NA,320,"rew",1751,751,310,310,"[1, 4, 2, 4]",5,"[1, 4, 2, 3, 1, 3, 4, 2]","A",NA,NA,NA,NA,203,240,239,0,191,191,95,"reward",95
"280",0,8,NA,NA,NA,NA,NA,NA,"rew",1751,0,NA,610,"[1]",10,"[2, 1, 4, 2, 3, 1, 4, 3]","B",NA,NA,NA,NA,203,NA,NA,0,NA,NA,92,"reward",92
"281",1,8,176,175,240,240,176,176,"rew",1751,1407,80,80,"[2, 1, 4, 2, 3, 1, 4, 3]",10,"[2, 1, 4, 2, 3, 1, 4, 3]","B",192,192,192,191,203,272,271,0,159,159,93,"reward",93
"282",0,8,160,159,208,207,160,159,"rew",1735,1328,564,564,"[4, 3, 1, 4, 2, 3, 1, 2]",30,"[4, 3, 1, 4, 2, 3, 1, 2]","C",224,224,176,176,203,224,223,1,176,175,94,"reward",94
"283",0,8,NA,NA,209,208,192,192,"rew",1735,991,288,288,"[1, 4, 2, 3, 1, 2]",5,"[1, 4, 2, 3, 1, 3, 4, 2]","A",NA,NA,NA,175,203,240,239,0,175,175,96,"reward",96
"284",1,8,144,143,208,207,176,175,"rew",1735,1328,224,224,"[4, 3, 1, 4, 2, 3, 1, 2]",30,"[4, 3, 1, 4, 2, 3, 1, 2]","C",176,175,208,207,203,255,255,0,161,160,95,"reward",95
"285",0,8,NA,NA,NA,271,192,192,"rew",1735,880,345,345,"[4, 3, 1, 4, 3]",30,"[4, 3, 1, 4, 2, 3, 1, 2]","C",NA,NA,NA,NA,203,240,239,0,176,175,96,"reward",96
"286",0,8,NA,NA,352,351,176,176,"rew",1735,1248,278,278,"[2, 1, 4, 2, 3, 1, 3]",10,"[2, 1, 4, 2, 3, 1, 4, 3]","B",NA,175,144,144,203,240,239,0,160,159,94,"reward",94
"287",1,8,176,175,336,335,176,176,"rew",1735,1504,101,101,"[2, 1, 4, 2, 3, 1, 4, 3]",10,"[2, 1, 4, 2, 3, 1, 4, 3]","B",256,255,160,159,203,272,272,0,128,127,95,"reward",95
"288",1,8,176,176,240,240,208,208,"rew",1735,1441,76,76,"[2, 1, 4, 2, 3, 1, 4, 3]",10,"[2, 1, 4, 2, 3, 1, 4, 3]","B",224,224,193,192,203,208,207,0,192,191,96,"reward",96
"289",0,9,NA,NA,272,272,192,192,"rew",1719,1745,448,448,"[4, 3, 1, 4, 2, 3, 4]",30,"[4, 3, 1, 4, 2, 3, 1, 2]","C",NA,448,368,368,203,240,239,0,224,223,97,"reward",97
"290",0,9,NA,NA,NA,255,175,175,"rew",1719,848,275,275,"[4, 3, 1, 4, 3]",30,"[4, 3, 1, 4, 2, 3, 1, 2]","C",NA,NA,NA,NA,203,241,241,0,176,175,98,"reward",98
"291",0,9,NA,NA,272,271,192,192,"rew",1719,1393,261,261,"[2, 1, 4, 2, 3, 1, 3]",10,"[2, 1, 4, 2, 3, 1, 4, 3]","B",NA,208,273,273,203,271,271,0,177,176,97,"reward",97
"292",1,9,177,176,208,208,192,192,"rew",1719,1377,223,223,"[2, 1, 4, 2, 3, 1, 4, 3]",10,"[2, 1, 4, 2, 3, 1, 4, 3]","B",176,176,192,191,203,224,223,0,208,207,98,"reward",98
"293",0,9,192,191,191,191,257,257,"rew",1717,1439,436,436,"[2, 1, 4, 2, 3, 1, 4, 3]",10,"[2, 1, 4, 2, 3, 1, 4, 3]","B",175,175,225,224,203,192,191,1,207,207,99,"reward",99
"294",0,9,176,176,176,175,288,287,"rew",1717,1423,307,307,"[2, 1, 4, 2, 3, 1, 4, 3]",10,"[2, 1, 4, 2, 3, 1, 4, 3]","B",160,159,240,239,203,176,175,1,207,207,100,"reward",100
"295",0,9,NA,NA,208,207,192,191,"rew",1717,1088,310,310,"[1, 4, 2, 3, 1, 2]",5,"[1, 4, 2, 3, 1, 3, 4, 2]","A",NA,NA,NA,239,203,240,239,0,208,207,97,"reward",97
"296",1,9,192,192,224,223,176,175,"rew",1717,1440,35,35,"[1, 4, 2, 3, 1, 3, 4, 2]",5,"[1, 4, 2, 3, 1, 3, 4, 2]","A",207,207,209,208,203,240,239,0,192,190,98,"reward",98
"297",0,9,193,192,255,255,177,176,"rew",1717,1441,354,354,"[2, 1, 4, 2, 3, 1, 4, 3]",10,"[2, 1, 4, 2, 3, 1, 4, 3]","B",176,175,208,208,203,272,271,1,160,159,101,"reward",101
"298",0,9,NA,NA,NA,NA,NA,NA,"rew",1717,400,341,341,"[1, 4, 1]",5,"[1, 4, 2, 3, 1, 3, 4, 2]","A",NA,NA,NA,NA,203,NA,223,0,176,175,99,"reward",99
"299",0,9,NA,176,208,208,160,160,"rew",1717,1295,232,232,"[1, 4, 2, 3, 1, 3, 4, 3]",5,"[1, 4, 2, 3, 1, 3, 4, 2]","A",160,160,176,176,203,224,224,0,191,191,100,"reward",100
"300",0,9,NA,NA,208,207,176,175,"rew",1717,1344,364,364,"[4, 3, 1, 4, 2, 3, 2]",30,"[4, 3, 1, 4, 2, 3, 1, 2]","C",NA,399,177,176,203,224,223,0,160,159,99,"reward",99
"301",1,9,176,175,192,192,192,191,"rew",1717,1328,296,296,"[2, 1, 4, 2, 3, 1, 4, 3]",10,"[2, 1, 4, 2, 3, 1, 4, 3]","B",192,192,192,191,203,208,207,0,176,175,102,"reward",102
"302",0,9,NA,NA,191,191,225,224,"rew",1717,976,322,322,"[2, 1, 4, 2, 3, 3]",10,"[2, 1, 4, 2, 3, 1, 4, 3]","B",NA,NA,NA,159,203,240,239,0,160,160,103,"reward",103
"303",0,9,NA,176,224,223,144,144,"rew",1717,1392,575,575,"[4, 3, 1, 4, 2, 3, 1, 4]",30,"[4, 3, 1, 4, 2, 3, 1, 2]","C",192,191,192,191,203,304,303,0,160,159,100,"reward",100
"304",1,9,160,159,208,207,144,144,"rew",1717,1295,338,338,"[2, 1, 4, 2, 3, 1, 4, 3]",10,"[2, 1, 4, 2, 3, 1, 4, 3]","B",192,191,208,207,203,224,223,0,159,159,104,"reward",104
"305",0,9,305,304,192,191,176,176,"rew",1703,1456,325,325,"[4, 3, 1, 4, 2, 3, 1, 2]",30,"[4, 3, 1, 4, 2, 3, 1, 2]","C",240,240,176,175,203,224,223,1,144,143,101,"reward",101
"306",0,9,NA,NA,NA,NA,NA,175,"rew",1703,623,321,321,"[2, 1, 4, 3]",10,"[2, 1, 4, 2, 3, 1, 4, 3]","B",NA,NA,NA,NA,203,272,271,0,175,175,105,"reward",105
"307",0,9,96,95,177,176,208,207,"rew",1703,1489,547,547,"[4, 3, 1, 4, 2, 3, 1, 2]",30,"[4, 3, 1, 4, 2, 3, 1, 2]","C",449,448,223,223,203,128,127,1,208,207,102,"reward",102
"308",1,9,176,176,208,207,192,191,"rew",1703,1312,309,309,"[4, 3, 1, 4, 2, 3, 1, 2]",30,"[4, 3, 1, 4, 2, 3, 1, 2]","C",192,191,208,208,203,192,191,0,144,143,103,"reward",103
"309",0,9,NA,NA,NA,NA,NA,NA,"rew",1688,175,386,386,"[4, 1]",30,"[4, 3, 1, 4, 2, 3, 1, 2]","C",NA,NA,NA,NA,203,NA,NA,0,NA,175,104,"reward",104
"310",0,9,NA,NA,NA,NA,NA,224,"rew",1688,655,276,276,"[2, 1, 4, 3]",10,"[2, 1, 4, 2, 3, 1, 4, 3]","B",NA,NA,NA,NA,203,272,272,0,159,159,106,"reward",106
"311",0,9,NA,NA,256,255,192,191,"rew",1688,1199,252,252,"[4, 3, 1, 4, 2, 1]",30,"[4, 3, 1, 4, 2, 3, 1, 2]","C",NA,NA,NA,335,203,224,223,0,191,191,105,"reward",105
"312",0,9,NA,NA,NA,416,224,223,"rew",1688,1055,255,255,"[1, 4, 2, 3, 4]",5,"[1, 4, 2, 3, 1, 3, 4, 2]","A",NA,NA,NA,NA,203,240,239,0,175,175,101,"reward",101
"313",0,9,NA,NA,NA,638,193,192,"rew",1688,1216,449,449,"[4, 3, 1, 4, 3]",30,"[4, 3, 1, 4, 2, 3, 1, 2]","C",NA,NA,NA,NA,203,208,207,0,176,175,106,"reward",106
"314",0,9,NA,NA,NA,NA,NA,239,"rew",1688,672,417,417,"[2, 1, 4, 3]",10,"[2, 1, 4, 2, 3, 1, 4, 3]","B",NA,NA,NA,NA,203,272,271,0,160,159,107,"reward",107
"315",0,9,NA,NA,192,191,272,272,"rew",1688,1152,416,416,"[1, 4, 2, 3, 1, 4]",5,"[1, 4, 2, 3, 1, 3, 4, 2]","A",NA,NA,NA,240,203,272,271,0,176,175,102,"reward",102
"316",0,9,353,352,224,223,320,320,"rew",1688,1808,348,348,"[2, 1, 4, 2, 3, 1, 4, 3]",10,"[2, 1, 4, 2, 3, 1, 4, 3]","B",256,255,208,208,203,272,271,1,175,175,108,"reward",108
"317",0,9,NA,NA,NA,304,191,191,"rew",1688,912,294,294,"[4, 3, 1, 4, 3]",30,"[4, 3, 1, 4, 2, 3, 1, 2]","C",NA,NA,NA,NA,203,241,240,0,176,175,107,"reward",107
"318",0,9,144,144,544,544,224,224,"rew",1688,1839,269,269,"[1, 4, 2, 3, 1, 3, 4, 2]",5,"[1, 4, 2, 3, 1, 3, 4, 2]","A",288,288,224,223,203,240,240,1,175,175,103,"reward",103
"319",0,9,160,159,304,304,272,271,"rew",1688,1728,285,285,"[1, 4, 2, 3, 1, 3, 4, 2]",5,"[1, 4, 2, 3, 1, 3, 4, 2]","A",271,271,209,208,203,287,287,1,225,224,104,"reward",104
"320",1,9,64,63,208,207,175,175,"rew",1688,1440,246,246,"[1, 4, 2, 3, 1, 3, 4, 2]",5,"[1, 4, 2, 3, 1, 3, 4, 2]","A",320,319,144,143,203,321,320,0,208,207,105,"reward",105
"321",1,9,128,127,192,191,160,159,"rew",1686,1248,292,292,"[1, 4, 2, 3, 1, 3, 4, 2]",5,"[1, 4, 2, 3, 1, 3, 4, 2]","A",192,191,160,160,203,224,223,0,192,191,106,"reward",106
"322",0,9,NA,NA,NA,287,176,176,"rew",1687,848,388,388,"[4, 3, 1, 4, 3]",30,"[4, 3, 1, 4, 2, 3, 1, 2]","C",NA,NA,NA,NA,203,240,239,0,144,143,108,"reward",108
"323",0,9,112,112,240,239,159,159,"rew",1687,1439,276,276,"[1, 4, 2, 3, 1, 3, 4, 2]",5,"[1, 4, 2, 3, 1, 3, 4, 2]","A",352,351,176,175,203,225,223,1,175,175,107,"reward",107
"324",0,9,NA,NA,208,207,160,160,"rew",1687,959,353,353,"[1, 4, 2, 3, 1, 2]",5,"[1, 4, 2, 3, 1, 3, 4, 2]","A",NA,NA,NA,207,203,208,207,0,175,175,108,"reward",108
"325",1,1,240,239,304,303,384,384,"rew",NA,2352,906,906,"[1, 4, 2, 3, 1, 3, 4, 2]",NA,"[1, 4, 2, 3, 1, 3, 4, 2]","A",480,479,272,271,203,336,335,0,336,335,1,"test",1
"326",0,1,NA,NA,NA,NA,NA,NA,"rew",NA,336,582,582,"[1, 4]",NA,"[1, 3, 4, 2, 3, 2, 4, 1]","random",NA,NA,NA,NA,203,NA,NA,0,NA,336,1,"test",1
"327",1,1,544,544,416,415,560,559,"rew",NA,2944,671,671,"[2, 1, 4, 3, 4, 2, 1, 3]",NA,"[2, 1, 4, 3, 4, 2, 1, 3]","random",336,335,336,335,203,384,383,0,368,367,2,"test",2
"328",1,1,352,351,320,319,336,335,"rew",NA,2207,519,519,"[4, 3, 1, 4, 2, 3, 1, 2]",NA,"[4, 3, 1, 4, 2, 3, 1, 2]","C",272,272,320,319,203,272,271,0,335,335,1,"test",1
"329",0,1,NA,NA,NA,NA,NA,NA,"rew",NA,0,NA,471,"[4]",NA,"[3, 1, 4, 2, 3, 2, 4, 1]","random",NA,NA,NA,NA,203,NA,NA,0,NA,NA,3,"test",3
"330",1,1,192,191,288,288,304,303,"rew",NA,1936,336,336,"[4, 3, 1, 4, 2, 3, 1, 2]",NA,"[4, 3, 1, 4, 2, 3, 1, 2]","C",256,255,288,287,203,304,304,0,304,303,2,"test",2
"331",1,1,256,255,288,287,288,287,"rew",NA,2032,326,326,"[1, 4, 2, 3, 1, 3, 4, 2]",NA,"[1, 4, 2, 3, 1, 3, 4, 2]","A",288,287,304,303,203,320,319,0,288,287,2,"test",2
"332",1,1,224,223,256,255,368,367,"rew",NA,1984,103,103,"[4, 3, 1, 4, 2, 3, 1, 2]",NA,"[4, 3, 1, 4, 2, 3, 1, 2]","C",256,255,304,303,203,288,287,0,288,288,3,"test",3
"333",0,1,NA,NA,NA,NA,NA,NA,"rew",NA,816,470,470,"[1, 2, 3]",NA,"[1, 2, 4, 3, 4, 3, 2, 1]","random",NA,NA,NA,NA,203,NA,304,0,512,511,4,"test",4
"334",0,1,NA,NA,NA,NA,NA,NA,"rew",NA,0,NA,319,"[1]",NA,"[2, 1, 4, 2, 3, 1, 4, 3]","B",NA,NA,NA,NA,203,NA,NA,0,NA,NA,1,"test",1
"335",1,1,240,240,288,287,352,351,"rew",NA,2144,287,287,"[2, 1, 4, 2, 3, 1, 4, 3]",NA,"[2, 1, 4, 2, 3, 1, 4, 3]","B",304,304,288,288,203,336,336,0,336,335,2,"test",2
"336",1,1,208,207,287,287,337,336,"rew",NA,1888,262,262,"[4, 3, 1, 4, 2, 3, 1, 2]",NA,"[4, 3, 1, 4, 2, 3, 1, 2]","C",256,255,256,255,203,288,287,0,256,255,4,"test",4
"337",0,1,NA,NA,320,320,272,271,"rew",NA,1664,230,230,"[1, 4, 2, 3, 1, 3, 2]",NA,"[1, 4, 2, 3, 1, 3, 4, 2]","A",NA,256,272,271,203,304,303,0,240,240,3,"test",3
"338",0,1,NA,239,273,272,288,287,"rew",NA,1888,318,318,"[4, 3, 1, 4, 2, 3, 1, 4]",NA,"[4, 3, 1, 4, 2, 3, 1, 2]","C",272,271,271,271,203,272,271,0,272,272,5,"test",5
"339",1,1,192,192,288,288,272,271,"rew",NA,1744,335,335,"[4, 3, 1, 4, 2, 3, 1, 2]",NA,"[4, 3, 1, 4, 2, 3, 1, 2]","C",224,223,256,255,203,288,287,0,224,224,6,"test",6
"340",1,1,208,208,288,287,272,271,"rew",NA,2016,422,422,"[2, 1, 4, 2, 3, 1, 4, 3]",NA,"[2, 1, 4, 2, 3, 1, 4, 3]","B",352,352,288,288,203,304,303,0,304,303,3,"test",3
"341",1,1,560,560,448,447,352,352,"rew",NA,3264,6,6,"[4, 3, 1, 4, 2, 3, 1, 2]",NA,"[4, 3, 1, 4, 2, 3, 1, 2]","C",272,272,288,287,203,752,751,0,592,589,7,"test",7
"342",1,1,224,223,304,303,320,319,"rew",NA,1984,246,246,"[2, 1, 4, 2, 3, 1, 4, 3]",NA,"[2, 1, 4, 2, 3, 1, 4, 3]","B",272,271,288,287,203,304,303,0,272,271,4,"test",4
"343",1,1,207,206,304,303,304,303,"rew",NA,1887,278,278,"[4, 3, 1, 4, 2, 3, 1, 2]",NA,"[4, 3, 1, 4, 2, 3, 1, 2]","C",256,256,256,255,203,288,287,0,272,272,8,"test",8
"344",1,1,416,415,288,288,416,416,"rew",NA,2384,759,759,"[2, 1, 4, 2, 3, 1, 4, 3]",NA,"[2, 1, 4, 2, 3, 1, 4, 3]","B",320,319,272,271,203,304,304,0,368,368,5,"test",5
"345",1,1,192,191,272,271,240,240,"rew",NA,1952,262,262,"[1, 4, 2, 3, 1, 3, 4, 2]",NA,"[1, 4, 2, 3, 1, 3, 4, 2]","A",320,319,400,399,203,272,271,0,256,256,4,"test",4
"346",1,1,128,127,240,239,256,256,"rew",NA,1936,278,278,"[2, 1, 4, 2, 3, 1, 4, 3]",NA,"[2, 1, 4, 2, 3, 1, 4, 3]","B",512,511,256,256,203,256,255,0,288,287,6,"test",6
"347",1,1,240,240,416,415,384,383,"rew",NA,2608,486,486,"[3, 1, 2, 4, 2, 3, 4, 1]",NA,"[3, 1, 2, 4, 2, 3, 4, 1]","random",432,432,320,319,203,448,447,0,368,367,5,"test",5
"348",1,1,191,190,272,271,288,287,"rew",NA,2047,518,518,"[1, 4, 2, 3, 1, 3, 4, 2]",NA,"[1, 4, 2, 3, 1, 3, 4, 2]","A",240,239,464,464,203,256,255,0,336,336,5,"test",5
"349",1,1,192,191,304,303,272,271,"rew",NA,1824,262,262,"[1, 4, 2, 3, 1, 3, 4, 2]",NA,"[1, 4, 2, 3, 1, 3, 4, 2]","A",256,255,256,256,203,288,287,0,256,256,6,"test",6
"350",0,1,NA,NA,NA,NA,NA,NA,"rew",NA,624,470,470,"[2, 1, 4]",NA,"[2, 1, 3, 4, 1, 2, 4, 3]","random",NA,NA,NA,NA,203,NA,303,0,320,319,6,"test",6
"351",1,1,336,335,480,480,336,335,"rew",NA,2608,493,493,"[2, 1, 4, 3, 4, 2, 1, 3]",NA,"[2, 1, 4, 3, 4, 2, 1, 3]","random",400,400,320,319,203,320,319,0,416,416,7,"test",7
"352",1,1,208,208,288,288,272,272,"rew",NA,1776,278,278,"[1, 4, 2, 3, 1, 3, 4, 2]",NA,"[1, 4, 2, 3, 1, 3, 4, 2]","A",240,240,288,288,203,256,256,0,224,224,7,"test",7
"353",0,1,NA,NA,385,385,320,319,"rew",NA,2304,422,422,"[1, 2, 3, 4, 3, 4, 2]",NA,"[1, 2, 3, 4, 3, 4, 1, 2]","random",NA,288,495,495,203,320,319,0,496,496,8,"test",8
"354",0,1,NA,NA,304,304,272,271,"rew",NA,1519,540,540,"[1, 4, 2, 3, 1, 4]",NA,"[1, 4, 2, 3, 1, 3, 4, 2]","A",NA,NA,NA,302,203,304,303,0,336,336,8,"test",8
"355",0,1,NA,NA,NA,NA,NA,335,"rew",NA,992,492,492,"[2, 1, 4, 3]",NA,"[2, 1, 4, 2, 3, 1, 4, 3]","B",NA,NA,NA,NA,203,304,303,0,352,351,7,"test",7
"356",1,1,352,352,288,287,320,319,"rew",NA,2160,364,364,"[4, 3, 1, 4, 2, 3, 1, 2]",NA,"[4, 3, 1, 4, 2, 3, 1, 2]","C",304,304,288,287,203,352,351,0,256,255,9,"test",9
"357",1,1,192,191,288,287,288,287,"rew",NA,1856,310,310,"[4, 3, 1, 4, 2, 3, 1, 2]",NA,"[4, 3, 1, 4, 2, 3, 1, 2]","C",288,288,272,271,203,288,287,0,240,240,10,"test",10
"358",1,1,176,175,320,319,320,319,"rew",NA,2160,550,550,"[2, 1, 4, 2, 3, 1, 4, 3]",NA,"[2, 1, 4, 2, 3, 1, 4, 3]","B",320,320,272,271,203,368,367,0,384,383,8,"test",8
"359",1,1,336,336,336,335,304,303,"rew",NA,2464,438,438,"[1, 4, 2, 3, 1, 2, 4, 3]",NA,"[1, 4, 2, 3, 1, 2, 4, 3]","random",464,463,416,416,203,256,256,0,352,352,9,"test",9
"360",0,1,NA,NA,NA,NA,NA,NA,"rew",NA,672,406,406,"[1, 4, 2]",NA,"[1, 4, 3, 2, 3, 2, 4, 1]","random",NA,NA,NA,NA,203,NA,335,0,336,336,10,"test",10
"361",1,1,160,159,272,271,304,303,"rew",NA,1856,252,252,"[2, 1, 4, 2, 3, 1, 4, 3]",NA,"[2, 1, 4, 2, 3, 1, 4, 3]","B",288,287,272,271,203,272,272,0,288,288,9,"test",9
"362",1,1,176,175,608,608,352,351,"rew",NA,2144,277,277,"[1, 4, 2, 3, 1, 3, 4, 2]",NA,"[1, 4, 2, 3, 1, 3, 4, 2]","A",272,271,240,240,203,272,271,0,224,223,9,"test",9
"363",1,1,191,191,256,255,288,288,"rew",NA,1775,534,534,"[1, 4, 2, 3, 1, 3, 4, 2]",NA,"[1, 4, 2, 3, 1, 3, 4, 2]","A",256,256,256,256,203,272,271,0,256,255,10,"test",10
"364",1,1,224,223,256,256,288,288,"rew",NA,1728,326,326,"[2, 1, 4, 2, 3, 1, 4, 3]",NA,"[2, 1, 4, 2, 3, 1, 4, 3]","B",272,271,224,224,203,256,256,0,208,207,10,"test",10
"365",0,2,NA,448,288,287,288,287,"rew",NA,2080,298,298,"[4, 3, 1, 4, 2, 3, 1, 3]",NA,"[4, 3, 1, 4, 2, 3, 1, 2]","C",224,224,288,287,203,288,287,0,256,256,11,"test",11
"366",1,2,112,111,256,255,240,239,"rew",NA,1680,315,315,"[1, 4, 2, 3, 1, 3, 4, 2]",NA,"[1, 4, 2, 3, 1, 3, 4, 2]","A",384,383,208,207,203,241,240,0,239,238,11,"test",11
"367",0,2,NA,NA,NA,NA,NA,NA,"rew",NA,688,517,517,"[1, 4, 2]",NA,"[1, 4, 3, 2, 3, 4, 1, 2]","random",NA,NA,NA,NA,203,NA,319,0,368,367,11,"test",11
"368",1,2,192,191,320,319,352,351,"rew",NA,2192,572,572,"[2, 1, 4, 2, 3, 1, 4, 3]",NA,"[2, 1, 4, 2, 3, 1, 4, 3]","B",320,320,320,320,203,352,351,0,336,336,11,"test",11
"369",1,2,144,143,272,271,256,255,"rew",NA,1696,245,245,"[2, 1, 4, 2, 3, 1, 4, 3]",NA,"[2, 1, 4, 2, 3, 1, 4, 3]","B",288,288,240,239,203,272,272,0,224,223,12,"test",12
"370",1,2,177,177,272,271,256,256,"rew",NA,1777,326,326,"[2, 1, 4, 2, 3, 1, 4, 3]",NA,"[2, 1, 4, 2, 3, 1, 4, 3]","B",304,303,336,335,203,240,240,0,192,191,13,"test",13
"371",1,2,272,272,400,400,335,335,"rew",NA,2752,421,421,"[2, 3, 4, 1, 4, 3, 2, 1]",NA,"[2, 3, 4, 1, 4, 3, 2, 1]","random",416,415,576,575,203,321,321,0,432,432,12,"test",12
"372",1,2,175,174,256,255,288,287,"rew",NA,1727,230,230,"[1, 4, 2, 3, 1, 3, 4, 2]",NA,"[1, 4, 2, 3, 1, 3, 4, 2]","A",240,240,240,239,203,304,304,0,224,223,12,"test",12
"373",1,2,175,174,240,240,192,191,"rew",NA,1599,390,390,"[2, 1, 4, 2, 3, 1, 4, 3]",NA,"[2, 1, 4, 2, 3, 1, 4, 3]","B",256,255,224,223,203,288,288,0,224,223,14,"test",14
"374",1,2,272,271,303,302,400,400,"rew",NA,1968,278,278,"[2, 1, 4, 2, 3, 1, 4, 3]",NA,"[2, 1, 4, 2, 3, 1, 4, 3]","B",304,303,257,256,203,224,223,0,208,208,15,"test",15
"375",1,2,192,191,305,305,368,368,"rew",NA,1936,309,309,"[4, 3, 1, 4, 2, 3, 1, 2]",NA,"[4, 3, 1, 4, 2, 3, 1, 2]","C",288,287,271,271,203,256,256,0,256,255,12,"test",12
"376",0,2,NA,NA,NA,NA,NA,NA,"rew",NA,240,389,389,"[4, 1]",NA,"[4, 3, 1, 4, 2, 3, 1, 2]","C",NA,NA,NA,NA,203,NA,NA,0,NA,239,13,"test",13
"377",1,2,208,207,272,271,320,319,"rew",NA,1776,346,346,"[2, 1, 4, 2, 3, 1, 4, 3]",NA,"[2, 1, 4, 2, 3, 1, 4, 3]","B",208,207,240,239,203,240,239,0,288,288,16,"test",16
"378",0,2,NA,NA,NA,464,304,304,"rew",NA,1569,374,374,"[2, 3, 4, 1, 4]",NA,"[2, 3, 4, 1, 3, 1, 2, 4]","random",NA,NA,NA,NA,203,304,303,0,496,495,13,"test",13
"379",0,2,NA,NA,NA,431,432,432,"rew",NA,1696,553,553,"[3, 1, 2, 4, 2]",NA,"[3, 1, 2, 4, 1, 4, 3, 2]","random",NA,NA,NA,NA,203,496,495,0,336,335,14,"test",14
"380",1,2,240,240,288,287,304,303,"rew",NA,2000,522,522,"[2, 1, 4, 2, 3, 1, 4, 3]",NA,"[2, 1, 4, 2, 3, 1, 4, 3]","B",256,255,304,304,203,288,287,0,320,319,17,"test",17
"381",1,2,496,496,384,383,304,303,"rew",NA,2240,405,405,"[4, 3, 1, 4, 2, 3, 1, 2]",NA,"[4, 3, 1, 4, 2, 3, 1, 2]","C",304,303,208,208,203,304,304,0,240,239,14,"test",14
"382",1,2,336,336,480,479,368,367,"rew",NA,3072,341,341,"[2, 4, 3, 1, 4, 1, 3, 2]",NA,"[2, 4, 3, 1, 4, 1, 3, 2]","random",640,640,496,496,203,336,335,0,416,415,15,"test",15
"383",1,2,496,496,544,544,400,400,"rew",NA,3440,581,581,"[1, 3, 2, 4, 3, 1, 2, 4]",NA,"[1, 3, 2, 4, 3, 1, 2, 4]","random",496,495,448,448,203,496,495,0,560,560,16,"test",16
"384",1,2,223,223,273,273,272,272,"rew",NA,2463,421,421,"[1, 4, 2, 3, 1, 3, 4, 2]",NA,"[1, 4, 2, 3, 1, 3, 4, 2]","A",800,799,255,255,203,336,336,0,304,304,13,"test",13
"385",1,2,608,607,257,256,255,254,"rew",NA,2176,278,278,"[1, 4, 2, 3, 1, 3, 4, 2]",NA,"[1, 4, 2, 3, 1, 3, 4, 2]","A",272,271,240,239,203,304,304,0,240,240,14,"test",14
"386",0,2,NA,NA,NA,NA,NA,319,"rew",NA,800,197,197,"[1, 4, 2, 4]",NA,"[1, 4, 2, 3, 1, 3, 4, 2]","A",NA,NA,NA,NA,203,256,255,0,224,223,15,"test",15
"387",1,2,192,192,240,239,288,287,"rew",NA,1776,330,330,"[4, 3, 1, 4, 2, 3, 1, 2]",NA,"[4, 3, 1, 4, 2, 3, 1, 2]","C",240,240,272,271,203,240,239,0,304,303,15,"test",15
"388",0,2,NA,NA,240,239,272,271,"rew",NA,1088,261,261,"[1, 4, 2, 3, 1, 1]",NA,"[1, 4, 2, 3, 1, 3, 4, 2]","A",NA,NA,NA,111,203,256,256,0,208,208,16,"test",16
"389",1,2,224,223,304,303,288,288,"rew",NA,2128,57,57,"[4, 3, 1, 4, 2, 3, 1, 2]",NA,"[4, 3, 1, 4, 2, 3, 1, 2]","C",256,255,240,239,203,480,479,0,336,335,16,"test",16
"390",1,2,208,207,304,303,240,239,"rew",NA,1664,165,165,"[2, 1, 4, 2, 3, 1, 4, 3]",NA,"[2, 1, 4, 2, 3, 1, 4, 3]","B",224,223,192,191,203,256,255,0,240,239,18,"test",18
"391",1,2,208,207,240,240,272,271,"rew",NA,1808,325,325,"[1, 4, 2, 3, 1, 3, 4, 2]",NA,"[1, 4, 2, 3, 1, 3, 4, 2]","A",337,336,207,206,203,304,304,0,240,239,17,"test",17
"392",1,2,240,239,336,336,272,271,"rew",NA,2336,500,500,"[1, 4, 2, 3, 1, 3, 4, 2]",NA,"[1, 4, 2, 3, 1, 3, 4, 2]","A",304,303,528,527,203,288,287,0,368,368,18,"test",18
"393",1,2,192,191,256,255,241,240,"rew",NA,1840,437,437,"[1, 4, 2, 3, 1, 3, 4, 2]",NA,"[1, 4, 2, 3, 1, 3, 4, 2]","A",288,287,352,352,203,271,270,0,240,239,19,"test",19
"394",0,2,NA,NA,NA,NA,NA,NA,"rew",NA,303,246,246,"[4, 1]",NA,"[4, 3, 1, 4, 2, 3, 1, 2]","C",NA,NA,NA,NA,203,NA,NA,0,NA,303,17,"test",17
"395",0,2,NA,NA,NA,NA,NA,NA,"rew",NA,0,NA,440,"[4]",NA,"[3, 2, 4, 1, 3, 4, 2, 1]","random",NA,NA,NA,NA,203,NA,NA,0,NA,NA,17,"test",17
"396",1,2,160,159,352,352,256,255,"rew",NA,2128,234,234,"[1, 4, 2, 3, 1, 3, 4, 2]",NA,"[1, 4, 2, 3, 1, 3, 4, 2]","A",272,272,544,543,203,288,288,0,256,256,20,"test",20
"397",1,2,144,144,320,319,368,367,"rew",NA,2704,501,501,"[4, 2, 3, 1, 4, 1, 3, 2]",NA,"[4, 2, 3, 1, 4, 1, 3, 2]","random",544,543,624,623,203,320,319,0,384,384,18,"test",18
"398",0,2,NA,127,272,271,288,287,"rew",NA,2240,325,325,"[2, 1, 4, 2, 3, 1, 4, 2]",NA,"[2, 1, 4, 2, 3, 1, 4, 3]","B",464,463,496,495,203,304,304,0,288,288,19,"test",19
"399",1,2,208,207,288,288,288,287,"rew",NA,2016,407,407,"[4, 3, 1, 4, 2, 3, 1, 2]",NA,"[4, 3, 1, 4, 2, 3, 1, 2]","C",288,287,304,304,203,336,336,0,304,303,18,"test",18
"400",1,2,336,335,384,383,672,671,"rew",NA,3136,661,661,"[1, 4, 3, 2, 1, 4, 2, 3]",NA,"[1, 4, 3, 2, 1, 4, 2, 3]","random",448,448,384,384,203,496,495,0,416,416,19,"test",19
"401",1,2,176,176,304,303,304,303,"rew",NA,1936,404,404,"[4, 3, 1, 4, 2, 3, 1, 2]",NA,"[4, 3, 1, 4, 2, 3, 1, 2]","C",272,271,256,256,203,320,319,0,304,304,19,"test",19
"402",1,2,320,320,448,447,384,383,"rew",NA,2768,485,485,"[4, 3, 2, 1, 2, 1, 3, 4]",NA,"[4, 3, 2, 1, 2, 1, 3, 4]","random",432,431,416,415,203,384,384,0,384,384,20,"test",20
"403",1,2,400,399,304,303,272,272,"rew",NA,2160,261,261,"[4, 3, 1, 4, 2, 3, 1, 2]",NA,"[4, 3, 1, 4, 2, 3, 1, 2]","C",304,304,256,256,203,320,319,0,304,304,20,"test",20
"404",0,2,NA,NA,NA,NA,NA,NA,"rew",NA,320,293,293,"[2, 2]",NA,"[2, 1, 4, 2, 3, 1, 4, 3]","B",NA,NA,NA,NA,203,NA,NA,0,NA,319,20,"test",20
"405",1,3,240,240,336,335,288,287,"rew",NA,2144,443,443,"[1, 4, 2, 3, 1, 3, 4, 2]",NA,"[1, 4, 2, 3, 1, 3, 4, 2]","A",336,335,352,352,203,288,287,0,304,304,21,"test",21
"406",1,3,272,272,288,288,304,303,"rew",NA,2032,468,468,"[4, 3, 1, 4, 2, 3, 1, 2]",NA,"[4, 3, 1, 4, 2, 3, 1, 2]","C",304,303,272,271,203,288,287,0,304,303,21,"test",21
"407",1,3,224,224,288,288,304,303,"rew",NA,1952,581,581,"[2, 1, 4, 2, 3, 1, 4, 3]",NA,"[2, 1, 4, 2, 3, 1, 4, 3]","B",272,271,272,271,203,288,287,0,304,304,21,"test",21
"408",1,3,192,191,288,288,224,223,"rew",NA,1824,228,228,"[1, 4, 2, 3, 1, 3, 4, 2]",NA,"[1, 4, 2, 3, 1, 3, 4, 2]","A",288,287,272,271,203,320,319,0,240,239,22,"test",22
"409",1,3,192,191,240,239,256,255,"rew",NA,1680,309,309,"[1, 4, 2, 3, 1, 3, 4, 2]",NA,"[1, 4, 2, 3, 1, 3, 4, 2]","A",240,239,224,223,203,288,288,0,240,240,23,"test",23
"410",0,3,NA,NA,529,528,335,335,"rew",NA,2480,405,405,"[4, 2, 1, 3, 1, 4, 2]",NA,"[4, 2, 1, 3, 1, 4, 3, 2]","random",NA,319,384,384,203,432,431,0,480,480,21,"test",21
"411",1,3,431,430,304,303,304,303,"rew",NA,2159,391,391,"[4, 3, 1, 4, 2, 3, 1, 2]",NA,"[4, 3, 1, 4, 2, 3, 1, 2]","C",288,287,272,272,203,288,287,0,272,271,22,"test",22
"412",1,3,287,286,480,479,321,320,"rew",NA,3055,420,420,"[4, 1, 2, 3, 2, 3, 1, 4]",NA,"[4, 1, 2, 3, 2, 3, 1, 4]","random",432,431,512,511,203,463,463,0,560,560,22,"test",22
"413",1,3,176,176,352,351,288,288,"rew",NA,2352,645,645,"[1, 4, 2, 3, 1, 3, 4, 2]",NA,"[1, 4, 2, 3, 1, 3, 4, 2]","A",336,335,496,495,203,320,319,0,384,383,24,"test",24
"414",1,3,304,303,304,303,320,319,"rew",NA,2016,244,244,"[2, 1, 4, 2, 3, 1, 4, 3]",NA,"[2, 1, 4, 2, 3, 1, 4, 3]","B",240,239,208,207,203,320,319,0,320,319,22,"test",22
"415",0,3,NA,175,272,271,256,255,"rew",NA,1712,276,276,"[2, 1, 4, 2, 3, 1, 4, 2]",NA,"[2, 1, 4, 2, 3, 1, 4, 3]","B",272,271,224,223,203,256,255,0,256,255,23,"test",23
"416",1,3,416,416,288,287,239,239,"rew",NA,2255,23,23,"[2, 1, 4, 2, 3, 1, 4, 3]",NA,"[2, 1, 4, 2, 3, 1, 4, 3]","B",272,272,240,239,203,449,448,0,351,350,24,"test",24
"417",1,3,208,207,288,287,256,256,"rew",NA,2160,293,293,"[1, 4, 2, 3, 1, 3, 4, 2]",NA,"[1, 4, 2, 3, 1, 3, 4, 2]","A",336,335,528,527,203,288,287,0,256,255,25,"test",25
"418",1,3,160,160,240,239,240,240,"rew",NA,1744,308,308,"[4, 3, 1, 4, 2, 3, 1, 2]",NA,"[4, 3, 1, 4, 2, 3, 1, 2]","C",272,271,240,239,203,320,319,0,272,271,23,"test",23
"419",0,3,NA,NA,NA,NA,NA,NA,"rew",NA,304,644,644,"[4, 1]",NA,"[4, 3, 1, 4, 2, 3, 1, 2]","C",NA,NA,NA,NA,203,NA,NA,0,NA,303,24,"test",24
"420",1,3,160,160,384,384,512,511,"rew",NA,2352,582,582,"[2, 1, 4, 2, 3, 1, 4, 3]",NA,"[2, 1, 4, 2, 3, 1, 4, 3]","B",304,303,288,288,203,304,303,0,400,399,25,"test",25
"421",1,3,256,255,320,319,288,288,"rew",NA,1984,228,228,"[4, 3, 1, 4, 2, 3, 1, 2]",NA,"[4, 3, 1, 4, 2, 3, 1, 2]","C",272,271,256,256,203,288,287,0,304,304,25,"test",25
"422",1,3,176,176,272,272,256,255,"rew",NA,1808,293,293,"[2, 1, 4, 2, 3, 1, 4, 3]",NA,"[2, 1, 4, 2, 3, 1, 4, 3]","B",272,271,256,255,203,288,287,0,288,288,26,"test",26
"423",1,3,240,239,288,288,240,240,"rew",NA,1888,276,276,"[1, 4, 2, 3, 1, 3, 4, 2]",NA,"[1, 4, 2, 3, 1, 3, 4, 2]","A",272,271,336,335,203,256,255,0,256,255,26,"test",26
"424",1,3,144,144,272,271,225,224,"rew",NA,1920,324,324,"[1, 4, 2, 3, 1, 3, 4, 2]",NA,"[1, 4, 2, 3, 1, 3, 4, 2]","A",544,544,240,239,203,271,270,0,224,223,27,"test",27
"425",0,3,NA,NA,NA,NA,NA,NA,"rew",NA,0,NA,580,"[3]",NA,"[2, 4, 1, 3, 4, 1, 2, 3]","random",NA,NA,NA,NA,203,NA,NA,0,NA,NA,23,"test",23
"426",1,3,192,192,272,271,272,272,"rew",NA,1824,247,247,"[4, 3, 1, 4, 2, 3, 1, 2]",NA,"[4, 3, 1, 4, 2, 3, 1, 2]","C",256,255,240,240,203,320,319,0,272,272,26,"test",26
"427",1,3,400,400,368,368,336,335,"rew",NA,2992,516,516,"[4, 1, 2, 3, 4, 1, 3, 2]",NA,"[4, 1, 2, 3, 4, 1, 3, 2]","random",544,543,384,383,203,464,464,0,496,495,24,"test",24
"428",1,3,384,383,448,447,496,495,"rew",NA,2816,468,468,"[2, 1, 4, 3, 2, 1, 4, 3]",NA,"[2, 1, 4, 3, 2, 1, 4, 3]","random",352,351,368,367,203,352,351,0,416,416,25,"test",25
"429",1,3,320,319,304,303,272,272,"rew",NA,2016,244,244,"[1, 4, 2, 3, 1, 3, 4, 2]",NA,"[1, 4, 2, 3, 1, 3, 4, 2]","A",321,320,223,222,203,304,304,0,272,272,28,"test",28
"430",0,3,NA,NA,NA,NA,NA,NA,"rew",NA,624,501,501,"[1, 4, 2]",NA,"[1, 4, 3, 2, 4, 2, 1, 3]","random",NA,NA,NA,NA,203,NA,271,0,352,351,26,"test",26
"431",1,3,496,496,288,287,256,255,"rew",NA,2144,263,263,"[4, 3, 1, 4, 2, 3, 1, 2]",NA,"[4, 3, 1, 4, 2, 3, 1, 2]","C",272,271,256,255,203,320,319,0,256,255,27,"test",27
"432",1,3,432,432,464,463,416,416,"rew",NA,3120,580,580,"[3, 2, 4, 1, 2, 4, 1, 3]",NA,"[3, 2, 4, 1, 2, 4, 1, 3]","random",527,527,497,497,203,384,383,0,400,399,27,"test",27
"433",1,3,255,255,288,287,288,287,"rew",NA,2016,276,276,"[2, 1, 4, 2, 3, 1, 4, 3]",NA,"[2, 1, 4, 2, 3, 1, 4, 3]","B",289,289,272,271,203,304,303,0,320,320,27,"test",27
"434",1,3,192,191,288,287,256,256,"rew",NA,1840,469,469,"[4, 3, 1, 4, 2, 3, 1, 2]",NA,"[4, 3, 1, 4, 2, 3, 1, 2]","C",272,272,256,256,203,304,303,0,272,272,28,"test",28
"435",1,3,176,175,272,272,256,256,"rew",NA,1808,340,340,"[4, 3, 1, 4, 2, 3, 1, 2]",NA,"[4, 3, 1, 4, 2, 3, 1, 2]","C",272,272,256,255,203,304,303,0,272,271,29,"test",29
"436",1,3,272,272,448,448,288,287,"rew",NA,2592,581,581,"[3, 1, 4, 2, 1, 4, 3, 2]",NA,"[3, 1, 4, 2, 1, 4, 3, 2]","random",368,368,416,415,203,384,384,0,416,416,28,"test",28
"437",0,3,NA,NA,336,335,352,351,"rew",NA,1952,580,580,"[3, 2, 1, 4, 3, 2]",NA,"[3, 2, 1, 4, 3, 1, 2, 4]","random",NA,NA,NA,320,203,320,319,0,624,623,29,"test",29
"438",1,3,224,223,288,287,240,239,"rew",NA,1808,286,286,"[2, 1, 4, 2, 3, 1, 4, 3]",NA,"[2, 1, 4, 2, 3, 1, 4, 3]","B",240,240,224,224,203,304,304,0,288,288,28,"test",28
"439",1,3,512,511,560,559,304,303,"rew",NA,3168,644,644,"[1, 4, 3, 2, 3, 4, 1, 2]",NA,"[1, 4, 3, 2, 3, 4, 1, 2]","random",608,608,368,367,203,464,464,0,352,352,30,"test",30
"440",1,3,192,191,272,272,208,207,"rew",NA,1761,274,274,"[2, 1, 4, 2, 3, 1, 4, 3]",NA,"[2, 1, 4, 2, 3, 1, 4, 3]","B",288,287,240,240,203,288,287,0,273,272,29,"test",29
"441",1,3,192,191,239,238,256,255,"rew",NA,1632,228,228,"[1, 4, 2, 3, 1, 3, 4, 2]",NA,"[1, 4, 2, 3, 1, 3, 4, 2]","A",224,223,209,208,203,272,271,0,240,239,29,"test",29
"442",1,3,224,223,240,239,256,255,"rew",NA,1760,292,292,"[2, 1, 4, 2, 3, 1, 4, 3]",NA,"[2, 1, 4, 2, 3, 1, 4, 3]","B",272,271,240,240,203,239,239,0,289,289,30,"test",30
"443",1,3,160,160,304,304,208,207,"rew",NA,1760,548,548,"[4, 3, 1, 4, 2, 3, 1, 2]",NA,"[4, 3, 1, 4, 2, 3, 1, 2]","C",303,303,209,208,203,288,287,0,288,288,30,"test",30
"444",1,3,192,191,272,271,224,223,"rew",NA,2096,291,291,"[1, 4, 2, 3, 1, 3, 4, 2]",NA,"[1, 4, 2, 3, 1, 3, 4, 2]","A",272,271,624,624,203,272,272,0,240,239,30,"test",30
"445",1,1,593,592,480,479,528,527,"rew",NA,4161,3515,3515,"[1, 3, 4, 2, 1, 2, 4, 3]",NA,"[1, 3, 4, 2, 1, 2, 4, 3]","random",575,575,753,752,203,511,511,0,721,720,1,"training",1
"446",1,1,417,416,544,544,433,432,"rew",NA,3280,679,679,"[3, 2, 4, 1, 2, 3, 4, 1]",NA,"[3, 2, 4, 1, 2, 3, 4, 1]","random",400,399,495,495,203,495,495,0,496,496,2,"training",2
"447",1,1,496,495,480,479,416,416,"rew",NA,3200,1014,1014,"[2, 3, 4, 1, 2, 3, 4, 1]",NA,"[2, 3, 4, 1, 2, 3, 4, 1]","random",496,495,432,431,203,415,415,0,465,464,3,"training",3
"448",0,1,NA,NA,NA,NA,NA,NA,"rew",NA,528,503,503,"[1, 4]",NA,"[1, 3, 4, 2, 3, 1, 4, 2]","random",NA,NA,NA,NA,203,NA,NA,0,NA,527,4,"training",4
"449",1,1,433,432,465,465,415,415,"rew",NA,3265,511,511,"[4, 2, 3, 1, 4, 3, 2, 1]",NA,"[4, 2, 3, 1, 4, 3, 2, 1]","random",431,431,544,544,203,448,448,0,529,528,5,"training",5
"450",1,1,368,367,463,463,481,480,"rew",NA,3535,487,487,"[4, 2, 1, 3, 4, 1, 3, 2]",NA,"[4, 2, 1, 3, 4, 1, 3, 2]","random",544,543,624,623,203,512,511,0,543,543,6,"training",6
"451",0,1,NA,NA,NA,NA,NA,NA,"rew",NA,928,486,486,"[3, 4, 2]",NA,"[3, 4, 1, 2, 3, 4, 2, 1]","random",NA,NA,NA,NA,203,NA,447,0,480,479,7,"training",7
"452",0,1,NA,NA,NA,NA,NA,NA,"rew",NA,799,512,512,"[1, 3]",NA,"[1, 2, 4, 3, 2, 1, 3, 4]","random",NA,NA,NA,NA,203,NA,NA,0,NA,799,8,"training",8
"453",1,1,528,528,640,639,464,464,"rew",NA,3697,451,451,"[4, 2, 3, 1, 2, 1, 3, 4]",NA,"[4, 2, 3, 1, 2, 1, 3, 4]","random",545,544,560,559,203,431,431,0,529,528,9,"training",9
"454",1,1,640,639,465,464,448,448,"rew",NA,3663,535,535,"[2, 1, 4, 3, 2, 4, 1, 3]",NA,"[2, 1, 4, 3, 2, 4, 1, 3]","random",496,495,511,511,203,575,575,0,528,528,10,"training",10
"455",1,1,447,447,625,624,464,463,"rew",NA,3952,566,566,"[1, 2, 4, 3, 4, 3, 1, 2]",NA,"[1, 2, 4, 3, 4, 3, 1, 2]","random",577,576,639,639,203,592,591,0,608,607,11,"training",11
"456",0,1,NA,NA,NA,NA,NA,NA,"rew",NA,0,NA,806,"[3]",NA,"[2, 1, 3, 4, 2, 1, 3, 4]","random",NA,NA,NA,NA,203,NA,NA,0,NA,NA,12,"training",12
"457",1,1,480,479,624,623,432,431,"rew",NA,3583,478,478,"[4, 2, 3, 1, 3, 2, 1, 4]",NA,"[4, 2, 3, 1, 3, 2, 1, 4]","random",496,495,480,479,203,431,431,0,640,640,13,"training",13
"458",1,1,496,496,623,623,464,464,"rew",NA,3584,550,550,"[3, 2, 1, 4, 1, 2, 3, 4]",NA,"[3, 2, 1, 4, 1, 2, 3, 4]","random",495,495,593,592,203,464,464,0,449,448,14,"training",14
"459",1,1,495,495,431,431,433,431,"rew",NA,3408,486,486,"[3, 4, 1, 2, 3, 4, 1, 2]",NA,"[3, 4, 1, 2, 3, 4, 1, 2]","random",529,528,448,447,203,528,527,0,544,543,15,"training",15
"460",1,1,417,416,479,479,496,496,"rew",NA,3521,566,566,"[2, 1, 4, 3, 2, 3, 1, 4]",NA,"[2, 1, 4, 3, 2, 3, 1, 4]","random",543,543,593,592,203,480,480,0,513,512,16,"training",16
"461",1,1,497,496,527,527,465,465,"rew",NA,3457,678,678,"[3, 4, 1, 2, 4, 2, 1, 3]",NA,"[3, 4, 1, 2, 4, 2, 1, 3]","random",480,479,512,511,203,463,463,0,513,512,17,"training",17
"462",1,1,481,480,481,480,416,416,"rew",NA,3168,438,438,"[1, 4, 2, 3, 4, 1, 2, 3]",NA,"[1, 4, 2, 3, 4, 1, 2, 3]","random",480,479,399,399,203,496,495,0,415,415,18,"training",18
"463",1,1,449,448,512,511,400,399,"rew",NA,3472,407,407,"[1, 2, 4, 3, 1, 3, 2, 4]",NA,"[1, 2, 4, 3, 1, 3, 2, 4]","random",480,479,672,671,203,496,495,0,463,463,19,"training",19
"464",0,1,NA,NA,NA,NA,NA,NA,"rew",NA,993,518,518,"[1, 4, 4]",NA,"[1, 4, 3, 2, 4, 2, 1, 3]","random",NA,NA,NA,NA,203,NA,560,0,432,431,20,"training",20
"465",1,1,448,447,656,655,416,416,"rew",NA,3504,414,414,"[1, 2, 3, 4, 2, 3, 1, 4]",NA,"[1, 2, 3, 4, 2, 3, 1, 4]","random",463,463,401,400,203,416,415,0,704,703,21,"training",21
"466",1,1,496,495,575,575,480,480,"rew",NA,3696,534,534,"[4, 1, 2, 3, 2, 1, 4, 3]",NA,"[4, 1, 2, 3, 2, 1, 4, 3]","random",496,496,496,495,203,561,560,0,592,591,22,"training",22
"467",1,1,528,528,496,495,495,495,"rew",NA,3441,550,550,"[2, 1, 4, 3, 2, 1, 4, 3]",NA,"[2, 1, 4, 3, 2, 1, 4, 3]","random",481,480,480,480,203,464,464,0,497,496,23,"training",23
"468",1,1,465,464,560,559,416,416,"rew",NA,3425,821,821,"[3, 2, 1, 4, 1, 2, 4, 3]",NA,"[3, 2, 1, 4, 1, 2, 4, 3]","random",575,575,529,529,203,464,464,0,416,415,24,"training",24
"469",1,1,384,383,560,559,448,447,"rew",NA,3455,520,520,"[4, 1, 2, 3, 2, 3, 4, 1]",NA,"[4, 1, 2, 3, 2, 3, 4, 1]","random",480,479,640,639,203,480,479,0,463,463,25,"training",25
"470",1,1,527,527,559,559,464,464,"rew",NA,3360,550,550,"[2, 3, 1, 4, 1, 2, 3, 4]",NA,"[2, 3, 1, 4, 1, 2, 3, 4]","random",432,432,561,560,203,416,416,0,401,400,26,"training",26
"471",0,1,NA,NA,NA,NA,NA,NA,"rew",NA,1008,517,517,"[4, 1, 4]",NA,"[4, 1, 3, 2, 4, 3, 2, 1]","random",NA,NA,NA,NA,203,NA,544,0,464,463,27,"training",27
"472",1,1,481,480,609,608,512,512,"rew",NA,3585,444,444,"[4, 2, 3, 1, 3, 2, 4, 1]",NA,"[4, 2, 3, 1, 3, 2, 4, 1]","random",511,511,480,480,203,416,415,0,576,575,28,"training",28
"473",1,1,512,511,640,639,448,447,"rew",NA,3696,453,453,"[2, 3, 1, 4, 1, 3, 2, 4]",NA,"[2, 3, 1, 4, 1, 3, 2, 4]","random",448,447,672,671,203,511,511,0,465,464,29,"training",29
"474",1,1,465,464,464,464,465,464,"rew",NA,3488,502,502,"[1, 4, 2, 3, 2, 1, 3, 4]",NA,"[1, 4, 2, 3, 2, 1, 3, 4]","random",671,671,496,496,203,464,463,0,463,463,30,"training",30
"475",1,1,448,447,513,513,400,399,"rew",NA,3408,485,485,"[4, 1, 3, 2, 3, 2, 1, 4]",NA,"[4, 1, 3, 2, 3, 2, 1, 4]","random",608,607,447,447,203,543,543,0,449,448,31,"training",31
"476",1,1,511,511,465,465,448,447,"rew",NA,3472,646,646,"[3, 4, 1, 2, 3, 2, 1, 4]",NA,"[3, 4, 1, 2, 3, 2, 1, 4]","random",545,544,591,591,203,415,415,0,497,496,32,"training",32
"477",1,1,559,559,592,591,592,591,"rew",NA,3904,437,437,"[2, 4, 3, 1, 3, 1, 2, 4]",NA,"[2, 4, 3, 1, 3, 1, 2, 4]","random",576,576,481,480,203,559,559,0,545,544,33,"training",33
"478",1,1,544,543,465,464,432,431,"rew",NA,3184,534,534,"[3, 1, 4, 2, 3, 1, 4, 2]",NA,"[3, 1, 4, 2, 3, 1, 4, 2]","random",400,399,431,431,203,447,447,0,465,464,34,"training",34
"479",1,1,384,383,656,655,448,447,"rew",NA,3632,790,790,"[2, 1, 3, 4, 3, 2, 4, 1]",NA,"[2, 1, 3, 4, 3, 2, 4, 1]","random",544,543,592,591,203,576,575,0,432,432,35,"training",35
"480",1,1,608,608,641,640,464,463,"rew",NA,4065,486,486,"[4, 3, 2, 1, 3, 1, 4, 2]",NA,"[4, 3, 2, 1, 3, 1, 4, 2]","random",625,624,559,559,203,448,447,0,720,719,36,"training",36
"481",1,1,415,415,496,495,495,495,"rew",NA,3520,469,469,"[4, 3, 1, 2, 1, 4, 2, 3]",NA,"[4, 3, 1, 2, 1, 4, 2, 3]","random",561,560,640,639,203,481,480,0,432,431,37,"training",37
"482",1,1,335,335,417,416,463,463,"rew",NA,3200,629,629,"[3, 1, 4, 2, 3, 2, 4, 1]",NA,"[3, 1, 4, 2, 3, 2, 4, 1]","random",448,448,704,703,203,416,416,0,417,416,38,"training",38
"483",1,1,688,687,497,496,463,463,"rew",NA,3632,566,566,"[3, 4, 1, 2, 1, 2, 4, 3]",NA,"[3, 4, 1, 2, 1, 2, 4, 3]","random",529,528,527,527,203,417,416,0,511,511,39,"training",39
"484",1,1,591,591,768,768,527,527,"rew",NA,3952,709,709,"[2, 4, 3, 1, 4, 2, 1, 3]",NA,"[2, 4, 3, 1, 4, 2, 1, 3]","random",528,528,577,576,203,480,480,0,481,480,40,"training",40
"485",1,2,448,447,479,479,464,464,"rew",NA,3391,507,507,"[3, 1, 2, 4, 3, 4, 2, 1]",NA,"[3, 1, 2, 4, 3, 4, 2, 1]","random",480,479,496,495,203,545,544,0,479,479,41,"training",41
"486",1,2,497,497,527,527,449,448,"rew",NA,3393,517,517,"[4, 1, 2, 3, 2, 1, 4, 3]",NA,"[4, 1, 2, 3, 2, 1, 4, 3]","random",480,479,496,495,203,496,495,0,448,447,42,"training",42
"487",1,2,480,479,577,576,496,495,"rew",NA,3616,517,517,"[3, 4, 1, 2, 4, 1, 2, 3]",NA,"[3, 4, 1, 2, 4, 1, 2, 3]","random",592,591,511,511,203,448,447,0,512,511,43,"training",43
"488",1,2,447,447,527,527,513,512,"rew",NA,3504,534,534,"[3, 2, 1, 4, 1, 4, 3, 2]",NA,"[3, 2, 1, 4, 1, 4, 3, 2]","random",593,592,480,479,203,463,463,0,481,480,44,"training",44
"489",1,2,417,416,480,479,448,447,"rew",NA,3457,501,501,"[4, 2, 3, 1, 4, 3, 2, 1]",NA,"[4, 2, 3, 1, 4, 3, 2, 1]","random",463,463,609,608,203,431,431,0,609,608,45,"training",45
"490",1,2,368,367,625,623,367,367,"rew",NA,3296,437,437,"[1, 2, 4, 3, 1, 2, 3, 4]",NA,"[1, 2, 4, 3, 1, 2, 3, 4]","random",528,527,447,447,203,577,576,0,384,383,46,"training",46
"491",1,2,432,432,463,463,433,432,"rew",NA,3359,566,566,"[3, 2, 1, 4, 1, 3, 4, 2]",NA,"[3, 2, 1, 4, 1, 3, 4, 2]","random",543,543,609,608,203,448,447,0,431,431,47,"training",47
"492",1,2,464,463,464,464,449,448,"rew",NA,3264,629,629,"[3, 4, 1, 2, 3, 4, 1, 2]",NA,"[3, 4, 1, 2, 3, 4, 1, 2]","random",559,559,432,432,203,399,399,0,497,496,48,"training",48
"493",0,2,NA,NA,NA,479,432,431,"rew",NA,1887,584,584,"[2, 1, 3, 4, 1]",NA,"[2, 1, 3, 4, 2, 1, 3, 4]","random",NA,NA,NA,NA,203,512,512,0,463,463,49,"training",49
"494",1,2,464,464,448,447,464,463,"rew",NA,3344,587,587,"[3, 2, 4, 1, 2, 1, 4, 3]",NA,"[3, 2, 4, 1, 2, 1, 4, 3]","random",528,527,512,512,203,480,480,0,448,448,50,"training",50
"495",1,2,432,431,560,560,416,415,"rew",NA,3536,535,535,"[4, 2, 1, 3, 1, 2, 3, 4]",NA,"[4, 2, 1, 3, 1, 2, 3, 4]","random",464,463,560,559,203,496,495,0,608,607,51,"training",51
"496",1,2,464,463,448,447,400,399,"rew",NA,3424,503,503,"[1, 2, 4, 3, 2, 3, 4, 1]",NA,"[1, 2, 4, 3, 2, 3, 4, 1]","random",496,495,576,575,203,576,576,0,464,463,52,"training",52
"497",1,2,640,639,447,447,433,432,"rew",NA,3359,550,550,"[4, 3, 2, 1, 2, 4, 3, 1]",NA,"[4, 3, 2, 1, 2, 4, 3, 1]","random",416,415,528,528,203,400,399,0,495,495,53,"training",53
"498",1,2,463,463,464,463,416,415,"rew",NA,3392,502,502,"[4, 2, 1, 3, 4, 1, 3, 2]",NA,"[4, 2, 1, 3, 4, 1, 3, 2]","random",673,673,400,400,203,464,463,0,512,511,54,"training",54
"499",1,2,416,415,432,431,464,464,"rew",NA,3328,469,469,"[4, 1, 2, 3, 4, 2, 3, 1]",NA,"[4, 1, 2, 3, 4, 2, 3, 1]","random",431,431,673,672,203,464,463,0,448,447,55,"training",55
"500",1,2,448,448,689,688,496,495,"rew",NA,3585,661,661,"[2, 4, 3, 1, 4, 2, 1, 3]",NA,"[2, 4, 3, 1, 4, 2, 1, 3]","random",576,576,464,464,203,384,384,0,528,527,56,"training",56
"501",1,2,464,463,529,528,432,432,"rew",NA,3376,565,565,"[3, 4, 1, 2, 4, 1, 2, 3]",NA,"[3, 4, 1, 2, 4, 1, 2, 3]","random",496,495,479,479,203,464,463,0,512,511,57,"training",57
"502",1,2,400,399,480,479,448,448,"rew",NA,3104,725,725,"[3, 4, 2, 1, 4, 2, 3, 1]",NA,"[3, 4, 2, 1, 4, 2, 3, 1]","random",416,415,512,512,203,416,415,0,432,431,58,"training",58
"503",1,2,416,416,497,496,415,415,"rew",NA,3520,517,517,"[1, 2, 3, 4, 1, 3, 2, 4]",NA,"[1, 2, 3, 4, 1, 3, 2, 4]","random",432,431,831,831,203,417,416,0,512,511,59,"training",59
"504",1,2,449,448,624,623,448,447,"rew",NA,3473,597,597,"[3, 2, 1, 4, 1, 2, 4, 3]",NA,"[3, 2, 1, 4, 1, 2, 4, 3]","random",559,559,497,496,203,448,447,0,448,447,60,"training",60
"505",1,2,399,399,511,511,417,417,"rew",NA,3584,580,580,"[1, 3, 4, 2, 1, 3, 2, 4]",NA,"[1, 3, 4, 2, 1, 3, 2, 4]","random",609,608,576,575,203,464,463,0,608,607,61,"training",61
"506",1,2,463,463,480,479,432,432,"rew",NA,3344,693,693,"[2, 1, 4, 3, 2, 4, 3, 1]",NA,"[2, 1, 4, 3, 2, 4, 3, 1]","random",465,464,528,527,203,464,463,0,512,511,62,"training",62
"507",1,2,368,368,480,480,464,463,"rew",NA,3200,789,789,"[4, 3, 2, 1, 4, 3, 1, 2]",NA,"[4, 3, 2, 1, 4, 3, 1, 2]","random",384,383,560,560,203,383,383,0,561,560,63,"training",63
"508",1,2,400,399,1040,1039,384,383,"rew",NA,4128,550,550,"[2, 1, 3, 4, 2, 3, 1, 4]",NA,"[2, 1, 3, 4, 2, 3, 1, 4]","random",496,495,688,687,203,592,591,0,528,527,64,"training",64
"509",1,2,384,384,625,624,416,415,"rew",NA,3552,549,549,"[4, 2, 1, 3, 1, 3, 2, 4]",NA,"[4, 2, 1, 3, 1, 3, 2, 4]","random",559,559,448,448,203,480,479,0,640,639,65,"training",65
"510",1,2,400,399,689,688,368,367,"rew",NA,3536,597,597,"[3, 1, 4, 2, 4, 3, 2, 1]",NA,"[3, 1, 4, 2, 4, 3, 2, 1]","random",607,607,496,496,203,528,527,0,448,447,66,"training",66
"511",1,2,575,575,543,543,416,416,"rew",NA,3456,548,548,"[1, 4, 2, 3, 2, 1, 4, 3]",NA,"[1, 4, 2, 3, 2, 1, 4, 3]","random",433,432,512,511,203,433,432,0,544,543,67,"training",67
"512",0,2,NA,NA,NA,NA,NA,NA,"rew",NA,0,NA,613,"[4]",NA,"[3, 4, 2, 1, 4, 1, 2, 3]","random",NA,NA,NA,NA,203,NA,NA,0,NA,NA,68,"training",68
"513",1,2,465,464,721,721,431,431,"rew",NA,3681,635,635,"[4, 3, 1, 2, 3, 4, 1, 2]",NA,"[4, 3, 1, 2, 3, 4, 1, 2]","random",607,607,480,480,203,496,496,0,481,480,69,"training",69
"514",0,2,NA,NA,624,623,447,447,"rew",NA,3119,533,533,"[2, 1, 3, 4, 3, 4, 2]",NA,"[2, 1, 3, 4, 3, 4, 1, 2]","random",NA,463,544,543,203,561,560,0,479,479,70,"training",70
"515",1,2,447,447,672,672,480,479,"rew",NA,3552,537,537,"[4, 3, 2, 1, 2, 1, 3, 4]",NA,"[4, 3, 2, 1, 2, 1, 3, 4]","random",529,528,528,527,203,448,447,0,448,447,71,"training",71
"516",1,2,480,479,592,591,400,399,"rew",NA,3728,630,630,"[3, 1, 4, 2, 3, 1, 2, 4]",NA,"[3, 1, 4, 2, 3, 1, 2, 4]","random",736,735,496,496,203,496,496,0,528,527,72,"training",72
"517",1,2,512,511,656,655,528,527,"rew",NA,3760,550,550,"[1, 2, 3, 4, 2, 4, 1, 3]",NA,"[1, 2, 3, 4, 2, 4, 1, 3]","random",464,463,704,703,203,448,447,0,448,447,73,"training",73
"518",1,2,415,415,480,479,496,496,"rew",NA,3408,645,645,"[3, 4, 2, 1, 4, 3, 2, 1]",NA,"[3, 4, 2, 1, 4, 3, 2, 1]","random",513,513,464,464,203,512,511,0,528,528,74,"training",74
"519",1,2,432,431,608,608,448,447,"rew",NA,3488,549,549,"[2, 3, 4, 1, 4, 1, 2, 3]",NA,"[2, 3, 4, 1, 4, 1, 2, 3]","random",511,511,545,544,203,448,448,0,496,495,75,"training",75
"520",1,2,417,416,544,544,464,463,"rew",NA,3473,1044,1044,"[2, 4, 3, 1, 4, 3, 2, 1]",NA,"[2, 4, 3, 1, 4, 3, 2, 1]","random",495,495,673,673,203,416,415,0,464,463,76,"training",76
"521",1,2,449,448,624,623,416,415,"rew",NA,3408,533,533,"[1, 2, 3, 4, 3, 2, 4, 1]",NA,"[1, 2, 3, 4, 3, 2, 4, 1]","random",623,623,449,449,203,432,431,0,415,415,77,"training",77
"522",1,2,432,431,544,544,400,400,"rew",NA,3280,644,644,"[1, 4, 3, 2, 4, 1, 2, 3]",NA,"[1, 4, 3, 2, 4, 1, 2, 3]","random",447,447,465,464,203,480,479,0,512,511,78,"training",78
"523",1,2,625,624,624,623,576,575,"rew",NA,3825,837,837,"[3, 1, 2, 4, 2, 3, 1, 4]",NA,"[3, 1, 2, 4, 2, 3, 1, 4]","random",416,416,416,415,203,704,703,0,464,463,79,"training",79
"524",1,2,368,368,481,480,448,447,"rew",NA,3344,1060,1060,"[1, 4, 2, 3, 1, 4, 2, 3]",NA,"[1, 4, 2, 3, 1, 4, 2, 3]","random",448,447,463,463,203,447,447,0,689,688,80,"training",80
"525",1,3,415,415,591,591,497,496,"rew",NA,3551,507,507,"[3, 4, 2, 1, 3, 4, 2, 1]",NA,"[3, 4, 2, 1, 3, 4, 2, 1]","random",513,512,448,447,203,576,575,0,511,511,81,"training",81
"526",1,3,352,351,464,464,383,383,"rew",NA,3216,565,565,"[4, 1, 2, 3, 4, 2, 1, 3]",NA,"[4, 1, 2, 3, 4, 2, 1, 3]","random",528,528,544,543,203,481,480,0,464,463,82,"training",82
"527",1,3,416,415,527,527,417,416,"rew",NA,3615,581,581,"[4, 3, 1, 2, 1, 3, 2, 4]",NA,"[4, 3, 1, 2, 1, 3, 2, 4]","random",576,575,496,495,203,592,591,0,591,591,83,"training",83
"528",1,3,416,416,608,607,384,384,"rew",NA,3824,950,950,"[2, 1, 4, 3, 4, 1, 3, 2]",NA,"[2, 1, 4, 3, 4, 1, 3, 2]","random",705,704,672,671,203,576,575,0,463,463,84,"training",84
"529",1,3,400,399,703,703,432,431,"rew",NA,3888,516,516,"[1, 2, 3, 4, 1, 4, 2, 3]",NA,"[1, 2, 3, 4, 1, 4, 2, 3]","random",463,463,817,816,203,449,448,0,624,624,85,"training",85
"530",1,3,368,368,608,607,400,399,"rew",NA,3217,709,709,"[2, 4, 1, 3, 1, 3, 4, 2]",NA,"[2, 4, 1, 3, 1, 3, 4, 2]","random",496,496,465,464,203,400,399,0,480,479,86,"training",86
"531",1,3,400,399,481,480,416,416,"rew",NA,3120,724,724,"[2, 3, 1, 4, 2, 3, 1, 4]",NA,"[2, 3, 1, 4, 2, 3, 1, 4]","random",416,416,447,447,203,480,479,0,480,479,87,"training",87
"532",1,3,336,335,448,447,416,415,"rew",NA,3216,837,837,"[1, 2, 3, 4, 1, 3, 4, 2]",NA,"[1, 2, 3, 4, 1, 3, 4, 2]","random",528,527,624,623,203,416,416,0,448,447,88,"training",88
"533",1,3,401,401,528,527,416,416,"rew",NA,3280,645,645,"[4, 1, 2, 3, 2, 3, 1, 4]",NA,"[4, 1, 2, 3, 2, 3, 1, 4]","random",416,416,560,559,203,448,447,0,511,511,89,"training",89
"534",1,3,432,431,448,448,416,415,"rew",NA,3120,772,772,"[3, 4, 1, 2, 3, 2, 1, 4]",NA,"[3, 4, 1, 2, 3, 2, 1, 4]","random",432,432,496,496,203,416,416,0,480,479,90,"training",90
"535",0,3,NA,NA,NA,NA,NA,NA,"rew",NA,928,756,756,"[4, 1, 4]",NA,"[4, 1, 3, 2, 3, 4, 2, 1]","random",NA,NA,NA,NA,203,NA,496,0,432,431,91,"training",91
"536",0,3,NA,NA,NA,NA,NA,NA,"rew",NA,879,695,695,"[3, 4, 1]",NA,"[3, 4, 2, 1, 3, 1, 2, 4]","random",NA,NA,NA,NA,203,NA,399,0,479,479,92,"training",92
"537",1,3,431,431,512,512,496,495,"rew",NA,3440,619,619,"[2, 1, 4, 3, 4, 3, 2, 1]",NA,"[2, 1, 4, 3, 4, 3, 2, 1]","random",465,465,608,607,203,464,463,0,464,463,93,"training",93
"538",1,3,415,415,448,447,448,447,"rew",NA,3296,630,630,"[2, 1, 3, 4, 1, 4, 3, 2]",NA,"[2, 1, 3, 4, 1, 4, 3, 2]","random",529,528,576,575,203,447,447,0,433,432,94,"training",94
"539",1,3,352,351,448,447,431,431,"rew",NA,3199,677,677,"[2, 1, 3, 4, 1, 3, 4, 2]",NA,"[2, 1, 3, 4, 1, 3, 4, 2]","random",496,495,608,607,203,449,449,0,415,415,95,"training",95
"540",1,3,448,448,608,608,447,447,"rew",NA,3583,661,661,"[2, 3, 1, 4, 2, 4, 1, 3]",NA,"[2, 3, 1, 4, 2, 4, 1, 3]","random",560,560,640,639,203,432,432,0,448,448,96,"training",96
"541",1,3,464,463,480,479,416,416,"rew",NA,3328,644,644,"[1, 3, 4, 2, 1, 3, 2, 4]",NA,"[1, 3, 4, 2, 1, 3, 2, 4]","random",560,559,448,447,203,480,479,0,480,479,97,"training",97
"542",1,3,464,463,496,496,400,399,"rew",NA,3408,580,580,"[1, 4, 2, 3, 2, 1, 3, 4]",NA,"[1, 4, 2, 3, 2, 1, 3, 4]","random",559,559,481,480,203,448,447,0,560,559,98,"training",98
"543",1,3,368,368,495,495,385,384,"rew",NA,3280,692,692,"[3, 1, 4, 2, 1, 3, 4, 2]",NA,"[3, 1, 4, 2, 1, 3, 4, 2]","random",432,432,448,447,203,528,527,0,624,623,99,"training",99
"544",0,3,NA,NA,560,560,416,415,"rew",NA,2815,565,565,"[1, 4, 3, 2, 3, 4, 1]",NA,"[1, 4, 3, 2, 3, 4, 2, 1]","random",NA,399,432,432,203,543,543,0,464,464,100,"training",100
"545",1,3,464,463,575,575,433,432,"rew",NA,3424,743,743,"[3, 2, 1, 4, 1, 4, 3, 2]",NA,"[3, 2, 1, 4, 1, 4, 3, 2]","random",511,511,561,560,203,416,415,0,464,463,101,"training",101
"546",1,3,496,495,527,527,449,449,"rew",NA,3744,660,660,"[4, 1, 3, 2, 3, 4, 2, 1]",NA,"[4, 1, 3, 2, 3, 4, 2, 1]","random",736,736,480,479,203,591,591,0,465,464,102,"training",102
"547",1,3,400,399,480,479,400,399,"rew",NA,3328,628,628,"[4, 1, 3, 2, 1, 4, 2, 3]",NA,"[4, 1, 3, 2, 1, 4, 2, 3]","random",544,544,432,432,203,543,543,0,529,528,103,"training",103
"548",1,3,417,417,608,607,400,399,"rew",NA,3201,532,532,"[2, 3, 4, 1, 3, 2, 1, 4]",NA,"[2, 3, 4, 1, 3, 2, 1, 4]","random",448,447,432,431,203,431,431,0,465,464,104,"training",104
"549",1,3,400,399,544,544,417,416,"rew",NA,3200,595,595,"[3, 2, 4, 1, 3, 2, 4, 1]",NA,"[3, 2, 4, 1, 3, 2, 4, 1]","random",479,479,416,416,203,480,480,0,464,463,105,"training",105
"550",1,3,416,415,464,463,384,384,"rew",NA,3424,580,580,"[3, 1, 4, 2, 1, 4, 3, 2]",NA,"[3, 1, 4, 2, 1, 4, 3, 2]","random",591,591,593,592,203,496,496,0,480,479,106,"training",106
"551",1,3,416,415,464,463,432,432,"rew",NA,3424,627,627,"[2, 1, 3, 4, 1, 3, 4, 2]",NA,"[2, 1, 3, 4, 1, 3, 4, 2]","random",512,511,544,543,203,576,576,0,480,479,107,"training",107
"552",1,3,385,384,464,463,415,415,"rew",NA,3024,677,677,"[4, 2, 3, 1, 4, 2, 3, 1]",NA,"[4, 2, 3, 1, 4, 2, 3, 1]","random",416,416,496,495,203,401,401,0,447,447,108,"training",108
"553",1,3,448,448,545,544,400,399,"rew",NA,3167,660,660,"[4, 1, 3, 2, 3, 4, 1, 2]",NA,"[4, 1, 3, 2, 3, 4, 1, 2]","random",431,431,448,448,203,464,463,0,431,431,109,"training",109
"554",1,3,496,495,464,463,400,399,"rew",NA,3392,548,548,"[1, 4, 2, 3, 4, 3, 2, 1]",NA,"[1, 4, 2, 3, 4, 3, 2, 1]","random",464,464,704,703,203,447,447,0,417,416,110,"training",110
"555",1,3,416,415,560,559,432,431,"rew",NA,3375,597,597,"[1, 4, 3, 2, 3, 2, 1, 4]",NA,"[1, 4, 3, 2, 3, 2, 1, 4]","random",527,527,561,560,203,432,431,0,447,446,111,"training",111
"556",1,3,432,432,416,415,416,415,"rew",NA,3216,708,708,"[2, 3, 4, 1, 2, 1, 3, 4]",NA,"[2, 3, 4, 1, 2, 1, 3, 4]","random",511,511,577,575,203,432,432,0,432,431,112,"training",112
"557",1,3,721,721,448,447,496,495,"rew",NA,3488,501,501,"[1, 4, 2, 3, 4, 2, 1, 3]",NA,"[1, 4, 2, 3, 4, 2, 1, 3]","random",432,431,448,447,203,399,399,0,544,544,113,"training",113
"558",1,3,400,399,449,448,432,432,"rew",NA,3456,579,579,"[4, 3, 2, 1, 4, 1, 3, 2]",NA,"[4, 3, 2, 1, 4, 1, 3, 2]","random",480,480,559,559,203,495,494,0,641,640,114,"training",114
"559",1,3,543,543,448,448,464,463,"rew",NA,3391,789,789,"[3, 1, 2, 4, 3, 2, 4, 1]",NA,"[3, 1, 2, 4, 3, 2, 4, 1]","random",497,496,416,415,203,496,495,0,527,527,115,"training",115
"560",1,3,385,384,528,527,368,367,"rew",NA,3200,549,549,"[2, 3, 4, 1, 4, 3, 1, 2]",NA,"[2, 3, 4, 1, 4, 3, 1, 2]","random",575,575,497,496,203,448,448,0,399,399,116,"training",116
"561",1,3,400,400,464,463,416,415,"rew",NA,3119,580,580,"[3, 4, 2, 1, 2, 3, 1, 4]",NA,"[3, 4, 2, 1, 2, 3, 1, 4]","random",464,464,464,463,203,448,448,0,463,463,117,"training",117
"562",1,3,369,368,448,448,416,416,"rew",NA,3040,582,582,"[1, 4, 2, 3, 4, 2, 3, 1]",NA,"[1, 4, 2, 3, 4, 2, 3, 1]","random",416,415,464,463,203,464,464,0,463,463,118,"training",118
"563",0,3,NA,NA,NA,464,384,384,"rew",NA,1696,514,514,"[2, 3, 1, 4, 2]",NA,"[2, 3, 1, 4, 1, 4, 2, 3]","random",NA,NA,NA,NA,203,432,431,0,416,415,119,"training",119
"564",1,3,432,431,513,512,463,463,"rew",NA,3663,503,503,"[1, 4, 3, 2, 4, 3, 1, 2]",NA,"[1, 4, 3, 2, 4, 3, 1, 2]","random",608,607,575,575,203,593,593,0,479,479,120,"training",120
"565",1,4,464,463,528,527,416,415,"rew",NA,3264,507,507,"[1, 3, 2, 4, 2, 3, 1, 4]",NA,"[1, 3, 2, 4, 2, 3, 1, 4]","random",384,384,448,447,203,448,447,0,576,575,121,"training",121
"566",1,4,447,447,544,543,432,432,"rew",NA,3328,564,564,"[4, 3, 1, 2, 3, 4, 1, 2]",NA,"[4, 3, 1, 2, 3, 4, 1, 2]","random",545,544,464,463,203,448,447,0,448,447,122,"training",122
"567",1,4,368,368,497,496,400,399,"rew",NA,3280,499,499,"[1, 3, 4, 2, 3, 4, 2, 1]",NA,"[1, 3, 4, 2, 3, 4, 2, 1]","random",511,511,448,448,203,448,447,0,608,607,123,"training",123
"568",1,4,400,400,479,479,433,432,"rew",NA,3104,787,787,"[4, 3, 2, 1, 2, 4, 3, 1]",NA,"[4, 3, 2, 1, 2, 4, 3, 1]","random",415,415,497,496,203,431,431,0,449,448,124,"training",124
"569",1,4,480,479,465,464,463,463,"rew",NA,3440,612,612,"[2, 1, 3, 4, 1, 4, 2, 3]",NA,"[2, 1, 3, 4, 1, 4, 2, 3]","random",528,528,591,591,203,449,448,0,464,463,125,"training",125
"570",1,4,448,447,480,479,448,447,"rew",NA,3360,643,643,"[4, 1, 3, 2, 3, 2, 1, 4]",NA,"[4, 1, 3, 2, 3, 2, 1, 4]","random",431,431,545,544,203,512,511,0,496,495,126,"training",126
"571",1,4,400,400,496,495,415,415,"rew",NA,3345,499,499,"[4, 3, 2, 1, 4, 1, 3, 2]",NA,"[4, 3, 2, 1, 4, 1, 3, 2]","random",593,592,464,463,203,449,448,0,528,527,127,"training",127
"572",1,4,417,417,479,479,432,432,"rew",NA,3233,595,595,"[4, 2, 1, 3, 1, 2, 4, 3]",NA,"[4, 2, 1, 3, 1, 2, 4, 3]","random",496,495,528,527,203,449,448,0,432,431,128,"training",128
"573",1,4,384,383,465,464,416,415,"rew",NA,3087,612,612,"[4, 2, 1, 3, 4, 2, 3, 1]",NA,"[4, 2, 1, 3, 4, 2, 3, 1]","random",528,528,431,431,203,431,431,0,432,432,129,"training",129
"574",1,4,384,384,464,463,416,415,"rew",NA,3024,596,596,"[4, 2, 1, 3, 2, 3, 4, 1]",NA,"[4, 2, 1, 3, 2, 3, 4, 1]","random",447,447,465,464,203,448,448,0,400,399,130,"training",130
"575",0,4,NA,NA,495,495,369,368,"rew",NA,2608,932,932,"[1, 2, 3, 4, 3, 1, 2]",NA,"[1, 2, 3, 4, 3, 1, 4, 2]","random",NA,352,480,479,203,448,447,0,464,463,131,"training",131
"576",1,4,432,431,431,431,481,480,"rew",NA,3088,502,502,"[1, 4, 3, 2, 1, 4, 3, 2]",NA,"[1, 4, 3, 2, 1, 4, 3, 2]","random",416,415,432,432,203,447,447,0,449,448,132,"training",132
"577",0,4,NA,NA,416,415,448,447,"rew",NA,2640,644,644,"[3, 2, 1, 4, 3, 1, 2]",NA,"[3, 2, 1, 4, 3, 1, 4, 2]","random",NA,383,465,464,203,480,479,0,448,447,133,"training",133
"578",0,4,NA,NA,496,495,432,431,"rew",NA,2849,564,564,"[1, 2, 3, 4, 3, 4, 2]",NA,"[1, 2, 3, 4, 3, 4, 1, 2]","random",NA,528,448,447,203,415,415,0,529,528,134,"training",134
"579",1,4,415,415,496,496,465,465,"rew",NA,3344,707,707,"[2, 1, 3, 4, 2, 4, 1, 3]",NA,"[2, 1, 3, 4, 2, 4, 1, 3]","random",496,496,528,528,203,495,495,0,449,448,135,"training",135
"580",1,4,417,416,464,463,416,416,"rew",NA,3328,644,644,"[4, 1, 3, 2, 4, 2, 3, 1]",NA,"[4, 1, 3, 2, 4, 2, 3, 1]","random",480,479,592,591,203,480,480,0,479,479,136,"training",136
"581",1,4,511,511,976,975,448,447,"rew",NA,3936,755,755,"[3, 4, 2, 1, 2, 3, 1, 4]",NA,"[3, 4, 2, 1, 2, 3, 1, 4]","random",513,513,544,543,203,464,463,0,480,479,137,"training",137
"582",1,4,383,383,464,463,384,383,"rew",NA,3215,724,724,"[3, 4, 1, 2, 1, 4, 2, 3]",NA,"[3, 4, 1, 2, 1, 4, 2, 3]","random",529,528,480,479,203,560,559,0,415,415,138,"training",138
"583",1,4,384,383,593,592,448,447,"rew",NA,3328,739,739,"[3, 1, 4, 2, 4, 2, 1, 3]",NA,"[3, 1, 4, 2, 4, 2, 1, 3]","random",496,496,495,495,203,480,479,0,432,432,139,"training",139
"584",1,4,432,431,528,528,496,495,"rew",NA,3552,642,642,"[1, 4, 2, 3, 2, 3, 1, 4]",NA,"[1, 4, 2, 3, 2, 3, 1, 4]","random",480,479,656,655,203,464,464,0,496,495,140,"training",140
"585",1,4,417,416,559,559,448,448,"rew",NA,3633,931,931,"[1, 3, 4, 2, 4, 1, 2, 3]",NA,"[1, 3, 4, 2, 4, 1, 2, 3]","random",559,559,561,559,203,497,496,0,592,591,141,"training",141
"586",1,4,448,448,528,527,464,464,"rew",NA,3376,884,884,"[2, 3, 1, 4, 3, 1, 2, 4]",NA,"[2, 3, 1, 4, 3, 1, 2, 4]","random",496,495,496,496,203,496,496,0,448,447,142,"training",142
"587",1,4,464,464,512,511,432,431,"rew",NA,3280,755,755,"[1, 2, 3, 4, 3, 2, 1, 4]",NA,"[1, 2, 3, 4, 3, 2, 1, 4]","random",432,431,512,511,203,448,447,0,480,479,143,"training",143
"588",1,4,464,463,480,479,496,496,"rew",NA,3599,836,836,"[3, 2, 1, 4, 2, 4, 1, 3]",NA,"[3, 2, 1, 4, 2, 4, 1, 3]","random",576,575,576,576,203,528,528,0,479,479,144,"training",144
"589",1,4,401,400,464,464,448,447,"rew",NA,3120,772,772,"[3, 1, 2, 4, 1, 3, 2, 4]",NA,"[3, 1, 2, 4, 1, 3, 2, 4]","random",415,415,449,449,203,464,464,0,479,479,145,"training",145
"590",1,4,464,464,705,704,384,383,"rew",NA,3904,644,644,"[3, 2, 4, 1, 4, 2, 1, 3]",NA,"[3, 2, 4, 1, 4, 2, 1, 3]","random",481,481,719,719,203,560,560,0,591,591,146,"training",146
"591",1,4,705,705,721,721,416,415,"rew",NA,3872,740,740,"[3, 2, 4, 1, 4, 3, 1, 2]",NA,"[3, 2, 4, 1, 4, 3, 1, 2]","random",496,496,527,527,203,512,511,0,495,495,147,"training",147
"592",1,4,400,399,528,527,415,415,"rew",NA,3456,595,595,"[4, 1, 2, 3, 2, 4, 3, 1]",NA,"[4, 1, 2, 3, 2, 4, 3, 1]","random",624,624,512,512,203,545,544,0,432,431,148,"training",148
"593",1,4,400,400,528,528,480,479,"rew",NA,3249,882,882,"[2, 1, 3, 4, 2, 3, 1, 4]",NA,"[2, 1, 3, 4, 2, 3, 1, 4]","random",449,448,464,463,203,448,448,0,480,479,149,"training",149
"594",1,4,480,480,464,464,463,463,"rew",NA,3233,787,787,"[2, 1, 3, 4, 1, 4, 2, 3]",NA,"[2, 1, 3, 4, 1, 4, 2, 3]","random",401,401,544,543,203,433,432,0,448,447,150,"training",150
